Subj	Item	Trial	List	Item.text	Response	Corr	CorrResp	RT	RespCatvpc301	critical-1VPC-P_1	9	7	[He will bring down the crowd]	No	0	Yes	1114	Missvpc301	critical-1VPC-P_32	19	7	[We will buy the supplies]	No	0	Yes	1521	Missvpc301	critical-1VPC-P_18	22	7	[They will mark up the lumber]	Yes	0	No	1762	FalseAlarmvpc301	critical-1VPC-P_22	28	7	[They will look over the part]	No	1	No	1040	CorrRejectvpc301	critical-1VPC-P_13	29	7	[She will finish up the game]	Yes	1	Yes	1343	Hitvpc301	critical-1VPC-P_23	44	7	[They will throw the frisbee]	Yes	0	No	1559	FalseAlarmvpc301	critical-1VPC-P_20	47	7	[They will pull the photo]	Yes	1	Yes	1000	Hitvpc301	critical-1VPC-P_9	49	7	[She will break off the stick]	Yes	1	Yes	1315	Hitvpc301	critical-1VPC-P_30	61	7	[We will mark off the pages]	Yes	0	No	1240	FalseAlarmvpc301	critical-1VPC-P_19	63	7	[They will keep the secret]	Yes	0	No	1258	FalseAlarmvpc301	critical-1VPC-P_21	64	7	[They will seal off the bag]	Yes	1	Yes	1245	Hitvpc301	critical-1VPC-P_24	65	7	[They will find the word]	Yes	1	Yes	1034	Hitvpc301	critical-1VPC-P_14	66	7	[She will clear out the drawer]	Yes	0	No	764	FalseAlarmvpc301	critical-1VPC-P_3	69	7	[He will eat the spaghetti]	No	1	No	1501	CorrRejectvpc301	critical-1VPC-P_31	71	7	[We will set the timer]	No	1	No	1317	CorrRejectvpc301	critical-1VPC-P_12	85	7	[She will give the prizes]	Yes	1	Yes	1005	Hitvpc301	critical-1VPC-P_28	100	7	[We will charge the phone]	Yes	1	Yes	1468	Hitvpc301	critical-1VPC-P_15	110	7	[She will patch the tire]	Yes	0	No	985	FalseAlarmvpc301	critical-1VPC-P_29	112	7	[We will make over the model]	Yes	1	Yes	1521	Hitvpc301	critical-1VPC-P_8	114	7	[He will hold the job]	No	0	Yes	1125	Missvpc301	critical-1VPC-P_4	116	7	[He will cut the meat]	Yes	1	Yes	2213	Hitvpc301	critical-1VPC-P_2	119	7	[He wil round up the fractions]	Yes	0	No	1155	FalseAlarmvpc301	critical-1VPC-P_17	122	7	[They will boil down the soup]	Yes	1	Yes	789	Hitvpc301	critical-1VPC-P_16	129	7	[She will buy the store]	Yes	1	Yes	1895	Hitvpc301	critical-1VPC-P_7	155	7	[He will see the rumors]	Yes	0	No	1585	FalseAlarmvpc301	critical-1VPC-P_27	156	7	[We will call the juror]	Yes	0	No	2060	FalseAlarmvpc301	critical-1VPC-P_26	159	7	[We will bail out the prisoner]	No	1	No	959	CorrRejectvpc301	critical-1VPC-P_5	160	7	[He will run over the trail]	No	0	Yes	540	Missvpc3010	critical-1VPC-P_22	5	2	[They will take the position]	Yes	0	No	227	FalseAlarmvpc3010	critical-1VPC-P_18	6	2	[They will catch the students]	Yes	0	No	261	FalseAlarmvpc3010	critical-1VPC-P_28	10	2	[We will dress up the doll]	No	0	Yes	271	Missvpc3010	critical-1VPC-P_7	15	2	[He will think the thoughts]	No	0	Yes	363	Missvpc3010	critical-1VPC-P_16	16	2	[She will throw out the trash]	Yes	1	Yes	137	Hitvpc3010	critical-1VPC-P_26	17	2	[We will bust the moves]	Yes	0	No	178	FalseAlarmvpc3010	critical-1VPC-P_23	19	2	[They will check the essays]	No	0	Yes	285	Missvpc3010	critical-1VPC-P_2	24	2	[He will buy the land]	No	1	No	139	CorrRejectvpc3010	critical-1VPC-P_5	29	2	[He will pass over the dessert]	No	1	No	1443	CorrRejectvpc3010	critical-1VPC-P_27	30	2	[We will bring the gifts]	Yes	1	Yes	967	Hitvpc3010	critical-1VPC-P_15	33	2	[She will set the boundaries]	Yes	1	Yes	277	Hitvpc3010	critical-1VPC-P_25	35	2	[We will throw in the towel]	No	1	No	646	CorrRejectvpc3010	critical-1VPC-P_21	47	2	[They will lead off the dance]	Yes	0	No	283	FalseAlarmvpc3010	critical-1VPC-P_19	50	2	[They will carry the groceries]	Yes	1	Yes	757	Hitvpc3010	critical-1VPC-P_14	59	2	[She will help the waiter]	Yes	0	No	659	FalseAlarmvpc3010	critical-1VPC-P_20	65	2	[They will live down the lie]	Yes	1	Yes	396	Hitvpc3010	critical-1VPC-P_12	86	2	[She will drive away the candidate]	No	0	Yes	501	Missvpc3010	critical-1VPC-P_8	97	2	[He will strike down the balance]	No	0	Yes	1111	Missvpc3010	critical-1VPC-P_4	100	2	[He will lock up the bicycle]	Yes	1	Yes	898	Hitvpc3010	critical-1VPC-P_31	106	2	[We will show the ponies]	No	0	Yes	337	Missvpc3010	critical-1VPC-P_13	108	2	[She will close up the cafթ]	No	1	No	513	CorrRejectvpc3010	critical-1VPC-P_30	113	2	[We will pull the sticker]	No	1	No	224	CorrRejectvpc3010	critical-1VPC-P_9	120	2	[She will pair off the geese]	No	1	No	1045	CorrRejectvpc3010	critical-1VPC-P_32	123	2	[We will tie up the canoe]	No	0	Yes	294	Missvpc3010	critical-1VPC-P_29	138	2	[We will smooth over the frosting]	No	1	No	1048	CorrRejectvpc3010	critical-1VPC-P_1	143	2	[He will hold down the line]	No	1	No	717	CorrRejectvpc3010	critical-1VPC-P_10	146	2	[She will check the books]	Yes	0	No	685	FalseAlarmvpc3010	critical-1VPC-P_6	149	2	[He will run the hills]	No	1	No	516	CorrRejectvpc3010	critical-1VPC-P_3	154	2	[He will cover the research]	Yes	1	Yes	682	Hitvpc3010	critical-1VPC-P_11	155	2	[She will shut the computer]	No	0	Yes	793	Missvpc3010	critical-1VPC-P_17	159	2	[They will shoot down the hawk]	Yes	0	No	493	FalseAlarmvpc3011	critical-1VPC-P_8	2	7	[He will hold the job]	Yes	1	Yes	1127	Hitvpc3011	critical-1VPC-P_25	5	7	[We will bring in the dog]	Yes	1	Yes	1055	Hitvpc3011	critical-1VPC-P_12	12	7	[She will give the prizes]	Yes	1	Yes	1368	Hitvpc3011	critical-1VPC-P_2	18	7	[He wil round up the fractions]	No	1	No	1851	CorrRejectvpc3011	critical-1VPC-P_11	20	7	[She will close the slide]	No	1	No	1949	CorrRejectvpc3011	critical-1VPC-P_29	21	7	[We will make over the model]	Yes	1	Yes	1713	Hitvpc3011	critical-1VPC-P_32	22	7	[We will buy the supplies]	Yes	1	Yes	1586	Hitvpc3011	critical-1VPC-P_26	28	7	[We will bail out the prisoner]	No	1	No	1302	CorrRejectvpc3011	critical-1VPC-P_24	29	7	[They will find the word]	Yes	1	Yes	1874	Hitvpc3011	critical-1VPC-P_23	34	7	[They will throw the frisbee]	No	1	No	1952	CorrRejectvpc3011	critical-1VPC-P_3	43	7	[He will eat the spaghetti]	No	1	No	1674	CorrRejectvpc3011	critical-1VPC-P_5	44	7	[He will run over the trail]	Yes	1	Yes	2475	Hitvpc3011	critical-1VPC-P_27	45	7	[We will call the juror]	No	1	No	1130	CorrRejectvpc3011	critical-1VPC-P_4	49	7	[He will cut the meat]	Yes	1	Yes	1541	Hitvpc3011	critical-1VPC-P_14	57	7	[She will clear out the drawer]	No	1	No	1751	CorrRejectvpc3011	critical-1VPC-P_21	74	7	[They will seal off the bag]	Yes	1	Yes	1728	Hitvpc3011	critical-1VPC-P_28	81	7	[We will charge the phone]	Yes	1	Yes	1563	Hitvpc3011	critical-1VPC-P_17	89	7	[They will boil down the soup]	Yes	1	Yes	1433	Hitvpc3011	critical-1VPC-P_20	93	7	[They will pull the photo]	No	0	Yes	1283	Missvpc3011	critical-1VPC-P_16	97	7	[She will buy the store]	Yes	1	Yes	1555	Hitvpc3011	critical-1VPC-P_30	112	7	[We will mark off the pages]	No	1	No	1477	CorrRejectvpc3011	critical-1VPC-P_1	114	7	[He will bring down the crowd]	Yes	1	Yes	1632	Hitvpc3011	critical-1VPC-P_6	124	7	[He will hold up the lizard]	No	1	No	1523	CorrRejectvpc3011	critical-1VPC-P_13	128	7	[She will finish up the game]	Yes	1	Yes	1606	Hitvpc3011	critical-1VPC-P_18	135	7	[They will mark up the lumber]	No	1	No	1502	CorrRejectvpc3011	critical-1VPC-P_19	144	7	[They will keep the secret]	No	1	No	1605	CorrRejectvpc3011	critical-1VPC-P_7	145	7	[He will see the rumors]	No	1	No	1607	CorrRejectvpc3011	critical-1VPC-P_31	151	7	[We will set the timer]	No	1	No	1408	CorrRejectvpc3011	critical-1VPC-P_9	152	7	[She will break off the stick]	No	0	Yes	1482	Missvpc3011	critical-1VPC-P_22	153	7	[They will look over the part]	No	1	No	1462	CorrRejectvpc3011	critical-1VPC-P_15	157	7	[She will patch the tire]	No	1	No	1436	CorrRejectvpc3012	critical-1VPC-P_31	8	3	[We will set the timer]	No	1	No	1255	CorrRejectvpc3012	critical-1VPC-P_30	11	3	[We will mark off the pages]	No	1	No	985	CorrRejectvpc3012	critical-1VPC-P_14	13	3	[She will clear out the drawer]	No	1	No	892	CorrRejectvpc3012	critical-1VPC-P_4	19	3	[He will cut the meat]	No	0	Yes	1697	Missvpc3012	critical-1VPC-P_10	20	3	[She will drive out the trucks]	No	1	No	1255	CorrRejectvpc3012	critical-1VPC-P_27	27	3	[We will call the juror]	No	1	No	912	CorrRejectvpc3012	critical-1VPC-P_18	33	3	[They will mark up the lumber]	No	1	No	1065	CorrRejectvpc3012	critical-1VPC-P_11	44	3	[She will close the slide]	No	1	No	1019	CorrRejectvpc3012	critical-1VPC-P_17	45	3	[They will boil down the soup]	Yes	1	Yes	1014	Hitvpc3012	critical-1VPC-P_8	53	3	[He will hold the job]	No	0	Yes	658	Missvpc3012	critical-1VPC-P_6	69	3	[He will hold up the lizard]	No	1	No	1363	CorrRejectvpc3012	critical-1VPC-P_25	76	3	[We will bring in the dog]	Yes	1	Yes	1014	Hitvpc3012	critical-1VPC-P_23	78	3	[They will throw the frisbee]	No	1	No	1276	CorrRejectvpc3012	critical-1VPC-P_13	86	3	[She will finish up the game]	No	0	Yes	832	Missvpc3012	critical-1VPC-P_1	95	3	[He will bring down the crowd]	Yes	1	Yes	1116	Hitvpc3012	critical-1VPC-P_3	97	3	[He will eat the spaghetti]	No	1	No	1102	CorrRejectvpc3012	critical-1VPC-P_12	98	3	[She will give the prizes]	Yes	1	Yes	848	Hitvpc3012	critical-1VPC-P_7	114	3	[He will see the rumors]	No	1	No	1210	CorrRejectvpc3012	critical-1VPC-P_5	119	3	[He will run over the trail]	Yes	1	Yes	850	Hitvpc3012	critical-1VPC-P_9	122	3	[She will break off the stick]	Yes	1	Yes	1069	Hitvpc3012	critical-1VPC-P_2	128	3	[He wil round up the fractions]	Yes	0	No	693	FalseAlarmvpc3012	critical-1VPC-P_28	132	3	[We will charge the phone]	Yes	1	Yes	613	Hitvpc3012	critical-1VPC-P_29	133	3	[We will make over the model]	Yes	1	Yes	864	Hitvpc3012	critical-1VPC-P_26	134	3	[We will bail out the prisoner]	Yes	0	No	757	FalseAlarmvpc3012	critical-1VPC-P_20	142	3	[They will pull the photo]	Yes	1	Yes	771	Hitvpc3012	critical-1VPC-P_19	145	3	[They will keep the secret]	No	1	No	864	CorrRejectvpc3012	critical-1VPC-P_15	149	3	[She will patch the tire]	Yes	0	No	703	FalseAlarmvpc3012	critical-1VPC-P_22	151	3	[They will look over the part]	No	1	No	1010	CorrRejectvpc3012	critical-1VPC-P_24	155	3	[They will find the word]	Yes	1	Yes	904	Hitvpc3012	critical-1VPC-P_16	156	3	[She will buy the store]	Yes	1	Yes	756	Hitvpc3012	critical-1VPC-P_32	157	3	[We will buy the supplies]	Yes	1	Yes	678	Hitvpc3012	critical-1VPC-P_21	158	3	[They will seal off the bag]	Yes	1	Yes	757	Hitvpc3013	critical-1VPC-P_31	9	1	[We will set off the timer]	Yes	1	Yes	1283	Hitvpc3013	critical-1VPC-P_8	12	1	[He will hold down the job]	Yes	0	No	1045	FalseAlarmvpc3013	critical-1VPC-P_23	20	1	[They will throw over the frisbee]	Yes	1	Yes	1293	Hitvpc3013	critical-1VPC-P_21	22	1	[They will seal the bag]	Yes	0	No	1206	FalseAlarmvpc3013	critical-1VPC-P_4	29	1	[He will cut up the meat]	Yes	0	No	1002	FalseAlarmvpc3013	critical-1VPC-P_27	30	1	[We will call forth the juror]	Yes	1	Yes	1252	Hitvpc3013	critical-1VPC-P_18	31	1	[They will mark the lumber]	Yes	1	Yes	1050	Hitvpc3013	critical-1VPC-P_25	32	1	[We will bring the dog]	Yes	0	No	2063	FalseAlarmvpc3013	critical-1VPC-P_11	33	1	[She will close down the slide]	Yes	1	Yes	1928	Hitvpc3013	critical-1VPC-P_24	43	1	[They will find out the word]	Yes	0	No	1463	FalseAlarmvpc3013	critical-1VPC-P_22	44	1	[They will look the part]	Yes	1	Yes	915	Hitvpc3013	critical-1VPC-P_10	45	1	[She will drive the trucks]	Yes	1	Yes	878	Hitvpc3013	critical-1VPC-P_26	47	1	[We will bail the prisoner]	Yes	1	Yes	868	Hitvpc3013	critical-1VPC-P_14	49	1	[She will clear the drawer]	Yes	1	Yes	1532	Hitvpc3013	critical-1VPC-P_29	52	1	[We will make the model]	No	1	No	1880	CorrRejectvpc3013	critical-1VPC-P_30	71	1	[We will mark the pages]	Yes	1	Yes	1274	Hitvpc3013	critical-1VPC-P_16	75	1	[She will buy out the store]	Yes	0	No	1483	FalseAlarmvpc3013	critical-1VPC-P_19	87	1	[They will keep up the secret]	Yes	1	Yes	934	Hitvpc3013	critical-1VPC-P_20	88	1	[They will pull down the photo]	Yes	0	No	1484	FalseAlarmvpc3013	critical-1VPC-P_15	89	1	[She will patch up the tire]	Yes	1	Yes	1018	Hitvpc3013	critical-1VPC-P_5	94	1	[He will run the trail]	No	1	No	1330	CorrRejectvpc3013	critical-1VPC-P_28	106	1	[We will charge up the phone]	Yes	0	No	1075	FalseAlarmvpc3013	critical-1VPC-P_6	112	1	[He will hold the lizard]	Yes	1	Yes	1869	Hitvpc3013	critical-1VPC-P_13	126	1	[She will finish the game]	Yes	0	No	1369	FalseAlarmvpc3013	critical-1VPC-P_12	128	1	[She will give away the prizes]	Yes	0	No	1438	FalseAlarmvpc3013	critical-1VPC-P_17	131	1	[They will boil the soup]	Yes	0	No	1256	FalseAlarmvpc3013	critical-1VPC-P_32	133	1	[We will buy up the supplies]	Yes	0	No	1319	FalseAlarmvpc3013	critical-1VPC-P_1	135	1	[He will bring the crowd]	Yes	0	No	788	FalseAlarmvpc3013	critical-1VPC-P_3	147	1	[He will eat up the spaghetti]	Yes	1	Yes	1124	Hitvpc3013	critical-1VPC-P_2	149	1	[He wil round the fractions]	Yes	1	Yes	983	Hitvpc3013	critical-1VPC-P_9	151	1	[She will break the stick]	Yes	0	No	1017	FalseAlarmvpc3013	critical-1VPC-P_7	153	1	[He will see through the rumors]	No	0	Yes	1642	Missvpc3014	critical-1VPC-P_1	9	7	[He will bring down the crowd]	Yes	1	Yes	790	Hitvpc3014	critical-1VPC-P_12	15	7	[She will give the prizes]	No	0	Yes	589	Missvpc3014	critical-1VPC-P_27	17	7	[We will call the juror]	Yes	0	No	1074	FalseAlarmvpc3014	critical-1VPC-P_19	18	7	[They will keep the secret]	Yes	0	No	732	FalseAlarmvpc3014	critical-1VPC-P_32	21	7	[We will buy the supplies]	No	0	Yes	935	Missvpc3014	critical-1VPC-P_14	22	7	[She will clear out the drawer]	Yes	0	No	829	FalseAlarmvpc3014	critical-1VPC-P_3	26	7	[He will eat the spaghetti]	Yes	0	No	536	FalseAlarmvpc3014	critical-1VPC-P_9	31	7	[She will break off the stick]	Yes	1	Yes	570	Hitvpc3014	critical-1VPC-P_2	33	7	[He wil round up the fractions]	No	1	No	574	CorrRejectvpc3014	critical-1VPC-P_25	45	7	[We will bring in the dog]	Yes	1	Yes	621	Hitvpc3014	critical-1VPC-P_18	46	7	[They will mark up the lumber]	Yes	0	No	918	FalseAlarmvpc3014	critical-1VPC-P_28	66	7	[We will charge the phone]	Yes	1	Yes	1256	Hitvpc3014	critical-1VPC-P_26	70	7	[We will bail out the prisoner]	Yes	0	No	1219	FalseAlarmvpc3014	critical-1VPC-P_22	75	7	[They will look over the part]	Yes	0	No	2234	FalseAlarmvpc3014	critical-1VPC-P_13	76	7	[She will finish up the game]	Yes	1	Yes	1925	Hitvpc3014	critical-1VPC-P_31	78	7	[We will set the timer]	No	1	No	1197	CorrRejectvpc3014	critical-1VPC-P_10	81	7	[She will drive out the trucks]	No	1	No	1447	CorrRejectvpc3014	critical-1VPC-P_23	87	7	[They will throw the frisbee]	Yes	0	No	1055	FalseAlarmvpc3014	critical-1VPC-P_29	89	7	[We will make over the model]	Yes	1	Yes	1803	Hitvpc3014	critical-1VPC-P_24	90	7	[They will find the word]	Yes	1	Yes	975	Hitvpc3014	critical-1VPC-P_16	100	7	[She will buy the store]	Yes	1	Yes	1312	Hitvpc3014	critical-1VPC-P_21	110	7	[They will seal off the bag]	Yes	1	Yes	830	Hitvpc3014	critical-1VPC-P_20	111	7	[They will pull the photo]	Yes	1	Yes	1471	Hitvpc3014	critical-1VPC-P_17	122	7	[They will boil down the soup]	Yes	1	Yes	793	Hitvpc3014	critical-1VPC-P_11	124	7	[She will close the slide]	No	1	No	1020	CorrRejectvpc3014	critical-1VPC-P_8	125	7	[He will hold the job]	Yes	1	Yes	877	Hitvpc3014	critical-1VPC-P_7	126	7	[He will see the rumors]	Yes	0	No	1077	FalseAlarmvpc3014	critical-1VPC-P_15	127	7	[She will patch the tire]	Yes	0	No	1107	FalseAlarmvpc3014	critical-1VPC-P_6	134	7	[He will hold up the lizard]	Yes	0	No	1915	FalseAlarmvpc3014	critical-1VPC-P_30	145	7	[We will mark off the pages]	Yes	0	No	503	FalseAlarmvpc3014	critical-1VPC-P_5	150	7	[He will run over the trail]	Yes	1	Yes	834	Hitvpc3014	critical-1VPC-P_4	155	7	[He will cut the meat]	Yes	1	Yes	971	Hitvpc3015	critical-1VPC-P_6	5	4	[He will run up the hills]	Yes	1	Yes	1510	Hitvpc3015	critical-1VPC-P_24	10	4	[They will wring the rag]	No	1	No	1594	CorrRejectvpc3015	critical-1VPC-P_25	20	4	[We will throw the towel]	Yes	1	Yes	1076	Hitvpc3015	critical-1VPC-P_15	22	4	[She will set up the boundaries]	No	1	No	2172	CorrRejectvpc3015	critical-1VPC-P_16	23	4	[She will throw the trash]	No	1	No	1486	CorrRejectvpc3015	critical-1VPC-P_12	26	4	[She will drive the candidate]	No	1	No	1076	CorrRejectvpc3015	critical-1VPC-P_11	27	4	[She will shut down the computer]	No	1	No	820	CorrRejectvpc3015	critical-1VPC-P_22	34	4	[They will take over the position]	Yes	1	Yes	1315	Hitvpc3015	critical-1VPC-P_30	41	4	[We will pull off the sticker]	Yes	1	Yes	1035	Hitvpc3015	critical-1VPC-P_5	43	4	[He will pass the dessert]	Yes	1	Yes	770	Hitvpc3015	critical-1VPC-P_27	51	4	[We will bring forth the gifts]	Yes	0	No	1545	FalseAlarmvpc3015	critical-1VPC-P_17	55	4	[They will shoot the hawk]	Yes	1	Yes	908	Hitvpc3015	critical-1VPC-P_14	57	4	[She will help out the waiter]	Yes	1	Yes	892	Hitvpc3015	critical-1VPC-P_3	63	4	[He will cover up the research]	No	1	No	822	CorrRejectvpc3015	critical-1VPC-P_8	76	4	[He will strike the balance]	No	1	No	963	CorrRejectvpc3015	critical-1VPC-P_29	78	4	[We will smooth the frosting]	Yes	1	Yes	926	Hitvpc3015	critical-1VPC-P_26	80	4	[We will bust out the moves]	Yes	1	Yes	1041	Hitvpc3015	critical-1VPC-P_32	84	4	[We will tie the canoe]	No	1	No	1023	CorrRejectvpc3015	critical-1VPC-P_31	85	4	[We will show off the ponies]	No	1	No	1103	CorrRejectvpc3015	critical-1VPC-P_9	86	4	[She will pair the geese]	Yes	1	Yes	1138	Hitvpc3015	critical-1VPC-P_18	101	4	[They will catch up the students]	Yes	1	Yes	753	Hitvpc3015	critical-1VPC-P_4	104	4	[He will lock the bicycle]	No	1	No	1261	CorrRejectvpc3015	critical-1VPC-P_20	116	4	[They will live the lie]	No	1	No	1075	CorrRejectvpc3015	critical-1VPC-P_23	117	4	[They will check over the essays]	No	1	No	1080	CorrRejectvpc3015	critical-1VPC-P_13	120	4	[She will close the cafթ]	Yes	1	Yes	854	Hitvpc3015	critical-1VPC-P_10	121	4	[She will check out the books]	Yes	1	Yes	925	Hitvpc3015	critical-1VPC-P_7	132	4	[He will think through the thoughts]	No	1	No	1134	CorrRejectvpc3015	critical-1VPC-P_2	135	4	[He will buy up the land]	Yes	1	Yes	1259	Hitvpc3015	critical-1VPC-P_28	137	4	[We will dress the doll]	No	1	No	646	CorrRejectvpc3015	critical-1VPC-P_19	140	4	[They will carry up the groceries]	No	1	No	1370	CorrRejectvpc3015	critical-1VPC-P_1	150	4	[He will hold the line]	Yes	1	Yes	964	Hitvpc3015	critical-1VPC-P_21	155	4	[They will lead the dance]	Yes	1	Yes	698	Hitvpc3016	critical-1VPC-P_13	2	4	[She will close the cafթ]	Yes	1	Yes	824	Hitvpc3016	critical-1VPC-P_11	8	4	[She will shut down the computer]	Yes	0	No	1225	FalseAlarmvpc3016	critical-1VPC-P_26	16	4	[We will bust out the moves]	Yes	1	Yes	1495	Hitvpc3016	critical-1VPC-P_5	19	4	[He will pass the dessert]	Yes	1	Yes	914	Hitvpc3016	critical-1VPC-P_28	20	4	[We will dress the doll]	No	1	No	853	CorrRejectvpc3016	critical-1VPC-P_12	21	4	[She will drive the candidate]	No	1	No	1026	CorrRejectvpc3016	critical-1VPC-P_16	25	4	[She will throw the trash]	No	1	No	1015	CorrRejectvpc3016	critical-1VPC-P_15	31	4	[She will set up the boundaries]	No	1	No	1150	CorrRejectvpc3016	critical-1VPC-P_2	37	4	[He will buy up the land]	No	0	Yes	799	Missvpc3016	critical-1VPC-P_6	43	4	[He will run up the hills]	No	0	Yes	1258	Missvpc3016	critical-1VPC-P_3	49	4	[He will cover up the research]	No	1	No	654	CorrRejectvpc3016	critical-1VPC-P_17	53	4	[They will shoot the hawk]	Yes	1	Yes	1333	Hitvpc3016	critical-1VPC-P_22	58	4	[They will take over the position]	Yes	1	Yes	1133	Hitvpc3016	critical-1VPC-P_23	61	4	[They will check over the essays]	No	1	No	1368	CorrRejectvpc3016	critical-1VPC-P_29	69	4	[We will smooth the frosting]	Yes	1	Yes	1358	Hitvpc3016	critical-1VPC-P_21	78	4	[They will lead the dance]	No	0	Yes	619	Missvpc3016	critical-1VPC-P_9	95	4	[She will pair the geese]	No	0	Yes	620	Missvpc3016	critical-1VPC-P_27	98	4	[We will bring forth the gifts]	No	1	No	1196	CorrRejectvpc3016	critical-1VPC-P_7	102	4	[He will think through the thoughts]	No	1	No	1292	CorrRejectvpc3016	critical-1VPC-P_25	116	4	[We will throw the towel]	Yes	1	Yes	1011	Hitvpc3016	critical-1VPC-P_19	118	4	[They will carry up the groceries]	Yes	0	No	676	FalseAlarmvpc3016	critical-1VPC-P_14	125	4	[She will help out the waiter]	No	0	Yes	854	Missvpc3016	critical-1VPC-P_1	126	4	[He will hold the line]	Yes	1	Yes	734	Hitvpc3016	critical-1VPC-P_30	129	4	[We will pull off the sticker]	No	0	Yes	816	Missvpc3016	critical-1VPC-P_8	137	4	[He will strike the balance]	No	1	No	934	CorrRejectvpc3016	critical-1VPC-P_32	138	4	[We will tie the canoe]	No	1	No	1088	CorrRejectvpc3016	critical-1VPC-P_10	144	4	[She will check out the books]	Yes	1	Yes	673	Hitvpc3016	critical-1VPC-P_18	145	4	[They will catch up the students]	Yes	1	Yes	860	Hitvpc3016	critical-1VPC-P_31	150	4	[We will show off the ponies]	Yes	0	No	660	FalseAlarmvpc3016	critical-1VPC-P_20	153	4	[They will live the lie]	No	1	No	1190	CorrRejectvpc3016	critical-1VPC-P_4	159	4	[He will lock the bicycle]	No	1	No	1235	CorrRejectvpc3016	critical-1VPC-P_24	160	4	[They will wring the rag]	No	1	No	877	CorrRejectvpc3017	critical-1VPC-P_28	8	6	[We will dress up the doll]	No	0	Yes	78	Missvpc3017	critical-1VPC-P_17	9	6	[They will shoot down the hawk]	Yes	0	No	42	FalseAlarmvpc3017	critical-1VPC-P_1	13	6	[He will hold down the line]	Yes	0	No	48	FalseAlarmvpc3017	critical-1VPC-P_30	20	6	[We will pull the sticker]	Yes	0	No	71	FalseAlarmvpc3017	critical-1VPC-P_31	25	6	[We will show the ponies]	Yes	1	Yes	44	Hitvpc3017	critical-1VPC-P_11	32	6	[She will shut the computer]	Yes	1	Yes	128	Hitvpc3017	critical-1VPC-P_9	36	6	[She will pair off the geese]	Yes	0	No	124	FalseAlarmvpc3017	critical-1VPC-P_26	41	6	[We will bust the moves]	Yes	0	No	68	FalseAlarmvpc3017	critical-1VPC-P_13	46	6	[She will close up the cafթ]	Yes	0	No	3	FalseAlarmvpc3017	critical-1VPC-P_29	48	6	[We will smooth over the frosting]	Yes	0	No	34	FalseAlarmvpc3017	critical-1VPC-P_6	52	6	[He will run the hills]	Yes	0	No	110	FalseAlarmvpc3017	critical-1VPC-P_10	58	6	[She will check the books]	Yes	0	No	109	FalseAlarmvpc3017	critical-1VPC-P_23	66	6	[They will check the essays]	No	0	Yes	923	Missvpc3017	critical-1VPC-P_14	67	6	[She will help the waiter]	No	1	No	1625	CorrRejectvpc3017	critical-1VPC-P_20	78	6	[They will live down the lie]	No	0	Yes	104	Missvpc3017	critical-1VPC-P_7	79	6	[He will think the thoughts]	Yes	1	Yes	904	Hitvpc3017	critical-1VPC-P_24	83	6	[They will wring out the rag]	Yes	1	Yes	1959	Hitvpc3017	critical-1VPC-P_22	105	6	[They will take the position]	No	1	No	52	CorrRejectvpc3017	critical-1VPC-P_2	110	6	[He will buy the land]	No	1	No	264	CorrRejectvpc3017	critical-1VPC-P_27	111	6	[We will bring the gifts]	No	0	Yes	591	Missvpc3017	critical-1VPC-P_15	112	6	[She will set the boundaries]	Yes	1	Yes	312	Hitvpc3017	critical-1VPC-P_3	118	6	[He will cover the research]	Yes	1	Yes	240	Hitvpc3017	critical-1VPC-P_8	120	6	[He will strike down the balance]	Yes	1	Yes	544	Hitvpc3017	critical-1VPC-P_32	124	6	[We will tie up the canoe]	No	0	Yes	449	Missvpc3017	critical-1VPC-P_18	127	6	[They will catch the students]	Yes	0	No	967	FalseAlarmvpc3017	critical-1VPC-P_12	131	6	[She will drive away the candidate]	Yes	1	Yes	431	Hitvpc3017	critical-1VPC-P_19	132	6	[They will carry the groceries]	Yes	1	Yes	1152	Hitvpc3017	critical-1VPC-P_5	140	6	[He will pass over the dessert]	Yes	0	No	169	FalseAlarmvpc3017	critical-1VPC-P_16	147	6	[She will throw out the trash]	Yes	1	Yes	725	Hitvpc3017	critical-1VPC-P_4	150	6	[He will lock up the bicycle]	No	0	Yes	1399	Missvpc3017	critical-1VPC-P_25	152	6	[We will throw in the towel]	No	1	No	116	CorrRejectvpc3018	critical-1VPC-P_13	1	3	[She will finish up the game]	No	0	Yes	479	Missvpc3018	critical-1VPC-P_19	14	3	[They will keep the secret]	Yes	0	No	2117	FalseAlarmvpc3018	critical-1VPC-P_24	17	3	[They will find the word]	No	0	Yes	1843	Missvpc3018	critical-1VPC-P_30	18	3	[We will mark off the pages]	Yes	0	No	1678	FalseAlarmvpc3018	critical-1VPC-P_4	21	3	[He will cut the meat]	Yes	1	Yes	1225	Hitvpc3018	critical-1VPC-P_3	24	3	[He will eat the spaghetti]	Yes	0	No	1481	FalseAlarmvpc3018	critical-1VPC-P_16	33	3	[She will buy the store]	Yes	1	Yes	1154	Hitvpc3018	critical-1VPC-P_32	35	3	[We will buy the supplies]	Yes	1	Yes	1376	Hitvpc3018	critical-1VPC-P_28	40	3	[We will charge the phone]	Yes	1	Yes	1688	Hitvpc3018	critical-1VPC-P_14	46	3	[She will clear out the drawer]	No	1	No	1607	CorrRejectvpc3018	critical-1VPC-P_15	52	3	[She will patch the tire]	Yes	0	No	1552	FalseAlarmvpc3018	critical-1VPC-P_23	60	3	[They will throw the frisbee]	Yes	0	No	1095	FalseAlarmvpc3018	critical-1VPC-P_1	61	3	[He will bring down the crowd]	Yes	1	Yes	1849	Hitvpc3018	critical-1VPC-P_9	78	3	[She will break off the stick]	Yes	1	Yes	1531	Hitvpc3018	critical-1VPC-P_12	83	3	[She will give the prizes]	Yes	1	Yes	947	Hitvpc3018	critical-1VPC-P_2	95	3	[He wil round up the fractions]	No	1	No	2302	CorrRejectvpc3018	critical-1VPC-P_31	99	3	[We will set the timer]	No	1	No	1318	CorrRejectvpc3018	critical-1VPC-P_29	102	3	[We will make over the model]	Yes	1	Yes	999	Hitvpc3018	critical-1VPC-P_27	103	3	[We will call the juror]	No	1	No	934	CorrRejectvpc3018	critical-1VPC-P_22	104	3	[They will look over the part]	Yes	0	No	1287	FalseAlarmvpc3018	critical-1VPC-P_26	107	3	[We will bail out the prisoner]	Yes	0	No	1232	FalseAlarmvpc3018	critical-1VPC-P_6	111	3	[He will hold up the lizard]	No	1	No	1278	CorrRejectvpc3018	critical-1VPC-P_21	113	3	[They will seal off the bag]	Yes	1	Yes	1159	Hitvpc3018	critical-1VPC-P_10	118	3	[She will drive out the trucks]	No	1	No	1553	CorrRejectvpc3018	critical-1VPC-P_7	122	3	[He will see the rumors]	No	1	No	1927	CorrRejectvpc3018	critical-1VPC-P_20	124	3	[They will pull the photo]	Yes	1	Yes	1171	Hitvpc3018	critical-1VPC-P_18	128	3	[They will mark up the lumber]	Yes	0	No	2224	FalseAlarmvpc3018	critical-1VPC-P_8	130	3	[He will hold the job]	Yes	1	Yes	993	Hitvpc3018	critical-1VPC-P_11	139	3	[She will close the slide]	No	1	No	2131	CorrRejectvpc3018	critical-1VPC-P_5	142	3	[He will run over the trail]	Yes	1	Yes	1092	Hitvpc3018	critical-1VPC-P_25	154	3	[We will bring in the dog]	Yes	1	Yes	1354	Hitvpc3018	critical-1VPC-P_17	155	3	[They will boil down the soup]	Yes	1	Yes	1052	Hitvpc3019	critical-1VPC-P_12	1	1	[She will give away the prizes]	No	1	No	414	CorrRejectvpc3019	critical-1VPC-P_26	5	1	[We will bail the prisoner]	No	0	Yes	1046	Missvpc3019	critical-1VPC-P_31	6	1	[We will set off the timer]	Yes	1	Yes	1344	Hitvpc3019	critical-1VPC-P_25	12	1	[We will bring the dog]	No	1	No	862	CorrRejectvpc3019	critical-1VPC-P_9	18	1	[She will break the stick]	Yes	0	No	1073	FalseAlarmvpc3019	critical-1VPC-P_13	19	1	[She will finish the game]	No	1	No	929	CorrRejectvpc3019	critical-1VPC-P_7	29	1	[He will see through the rumors]	No	0	Yes	1017	Missvpc3019	critical-1VPC-P_24	35	1	[They will find out the word]	Yes	0	No	830	FalseAlarmvpc3019	critical-1VPC-P_6	36	1	[He will hold the lizard]	Yes	1	Yes	1124	Hitvpc3019	critical-1VPC-P_1	38	1	[He will bring the crowd]	No	1	No	1079	CorrRejectvpc3019	critical-1VPC-P_22	43	1	[They will look the part]	No	0	Yes	952	Missvpc3019	critical-1VPC-P_32	48	1	[We will buy up the supplies]	No	1	No	865	CorrRejectvpc3019	critical-1VPC-P_5	51	1	[He will run the trail]	Yes	0	No	1185	FalseAlarmvpc3019	critical-1VPC-P_16	52	1	[She will buy out the store]	No	1	No	330	CorrRejectvpc3019	critical-1VPC-P_10	63	1	[She will drive the trucks]	Yes	1	Yes	1044	Hitvpc3019	critical-1VPC-P_29	69	1	[We will make the model]	Yes	0	No	550	FalseAlarmvpc3019	critical-1VPC-P_11	74	1	[She will close down the slide]	Yes	1	Yes	801	Hitvpc3019	critical-1VPC-P_4	83	1	[He will cut up the meat]	No	1	No	350	CorrRejectvpc3019	critical-1VPC-P_18	89	1	[They will mark the lumber]	No	0	Yes	94	Missvpc3019	critical-1VPC-P_27	92	1	[We will call forth the juror]	Yes	1	Yes	520	Hitvpc3019	critical-1VPC-P_23	97	1	[They will throw over the frisbee]	Yes	1	Yes	682	Hitvpc3019	critical-1VPC-P_2	110	1	[He wil round the fractions]	Yes	1	Yes	1330	Hitvpc3019	critical-1VPC-P_28	111	1	[We will charge up the phone]	No	1	No	833	CorrRejectvpc3019	critical-1VPC-P_3	114	1	[He will eat up the spaghetti]	Yes	1	Yes	798	Hitvpc3019	critical-1VPC-P_15	121	1	[She will patch up the tire]	Yes	1	Yes	1111	Hitvpc3019	critical-1VPC-P_21	127	1	[They will seal the bag]	No	1	No	806	CorrRejectvpc3019	critical-1VPC-P_17	136	1	[They will boil the soup]	Yes	0	No	864	FalseAlarmvpc3019	critical-1VPC-P_14	139	1	[She will clear the drawer]	No	0	Yes	929	Missvpc3019	critical-1VPC-P_8	147	1	[He will hold down the job]	No	1	No	1017	CorrRejectvpc3019	critical-1VPC-P_19	151	1	[They will keep up the secret]	No	0	Yes	1076	Missvpc3019	critical-1VPC-P_20	158	1	[They will pull down the photo]	Yes	0	No	966	FalseAlarmvpc302	critical-1VPC-P_11	15	3	[She will close the slide]	Yes	0	No	1507	FalseAlarmvpc302	critical-1VPC-P_4	21	3	[He will cut the meat]	Yes	1	Yes	1249	Hitvpc302	critical-1VPC-P_26	25	3	[We will bail out the prisoner]	No	1	No	1551	CorrRejectvpc302	critical-1VPC-P_7	26	3	[He will see the rumors]	No	1	No	1677	CorrRejectvpc302	critical-1VPC-P_9	27	3	[She will break off the stick]	Yes	1	Yes	1967	Hitvpc302	critical-1VPC-P_31	32	3	[We will set the timer]	No	1	No	2044	CorrRejectvpc302	critical-1VPC-P_6	44	3	[He will hold up the lizard]	Yes	0	No	1286	FalseAlarmvpc302	critical-1VPC-P_12	47	3	[She will give the prizes]	Yes	1	Yes	1283	Hitvpc302	critical-1VPC-P_15	50	3	[She will patch the tire]	No	1	No	2168	CorrRejectvpc302	critical-1VPC-P_8	59	3	[He will hold the job]	Yes	1	Yes	1021	Hitvpc302	critical-1VPC-P_20	61	3	[They will pull the photo]	Yes	1	Yes	1484	Hitvpc302	critical-1VPC-P_14	65	3	[She will clear out the drawer]	No	1	No	1565	CorrRejectvpc302	critical-1VPC-P_19	67	3	[They will keep the secret]	Yes	0	No	1533	FalseAlarmvpc302	critical-1VPC-P_23	77	3	[They will throw the frisbee]	No	1	No	1270	CorrRejectvpc302	critical-1VPC-P_21	98	3	[They will seal off the bag]	Yes	1	Yes	1201	Hitvpc302	critical-1VPC-P_1	100	3	[He will bring down the crowd]	No	0	Yes	2333	Missvpc302	critical-1VPC-P_17	110	3	[They will boil down the soup]	Yes	1	Yes	1796	Hitvpc302	critical-1VPC-P_24	113	3	[They will find the word]	Yes	1	Yes	1266	Hitvpc302	critical-1VPC-P_27	116	3	[We will call the juror]	Yes	0	No	1302	FalseAlarmvpc302	critical-1VPC-P_18	124	3	[They will mark up the lumber]	No	1	No	1141	CorrRejectvpc302	critical-1VPC-P_2	129	3	[He wil round up the fractions]	Yes	0	No	1358	FalseAlarmvpc302	critical-1VPC-P_28	136	3	[We will charge the phone]	Yes	1	Yes	1056	Hitvpc302	critical-1VPC-P_16	139	3	[She will buy the store]	Yes	1	Yes	1126	Hitvpc302	critical-1VPC-P_5	140	3	[He will run over the trail]	Yes	1	Yes	1230	Hitvpc302	critical-1VPC-P_13	142	3	[She will finish up the game]	Yes	1	Yes	1298	Hitvpc302	critical-1VPC-P_30	143	3	[We will mark off the pages]	Yes	0	No	929	FalseAlarmvpc302	critical-1VPC-P_32	144	3	[We will buy the supplies]	Yes	1	Yes	1026	Hitvpc302	critical-1VPC-P_29	147	3	[We will make over the model]	Yes	1	Yes	929	Hitvpc302	critical-1VPC-P_25	152	3	[We will bring in the dog]	Yes	1	Yes	900	Hitvpc302	critical-1VPC-P_22	154	3	[They will look over the part]	No	1	No	1825	CorrRejectvpc302	critical-1VPC-P_3	160	3	[He will eat the spaghetti]	No	1	No	1587	CorrRejectvpc3020	critical-1VPC-P_18	1	2	[They will catch the students]	No	1	No	1306	CorrRejectvpc3020	critical-1VPC-P_30	6	2	[We will pull the sticker]	No	1	No	1105	CorrRejectvpc3020	critical-1VPC-P_26	16	2	[We will bust the moves]	No	1	No	1455	CorrRejectvpc3020	critical-1VPC-P_2	25	2	[He will buy the land]	No	1	No	2180	CorrRejectvpc3020	critical-1VPC-P_20	34	2	[They will live down the lie]	Yes	1	Yes	1689	Hitvpc3020	critical-1VPC-P_8	37	2	[He will strike down the balance]	Yes	1	Yes	1395	Hitvpc3020	critical-1VPC-P_1	39	2	[He will hold down the line]	No	1	No	1517	CorrRejectvpc3020	critical-1VPC-P_9	42	2	[She will pair off the geese]	No	1	No	1706	CorrRejectvpc3020	critical-1VPC-P_16	43	2	[She will throw out the trash]	Yes	1	Yes	1111	Hitvpc3020	critical-1VPC-P_4	46	2	[He will lock up the bicycle]	Yes	1	Yes	970	Hitvpc3020	critical-1VPC-P_12	47	2	[She will drive away the candidate]	Yes	1	Yes	1025	Hitvpc3020	critical-1VPC-P_7	76	2	[He will think the thoughts]	No	0	Yes	1035	Missvpc3020	critical-1VPC-P_3	82	2	[He will cover the research]	Yes	1	Yes	1060	Hitvpc3020	critical-1VPC-P_28	86	2	[We will dress up the doll]	Yes	1	Yes	957	Hitvpc3020	critical-1VPC-P_14	89	2	[She will help the waiter]	Yes	0	No	932	FalseAlarmvpc3020	critical-1VPC-P_19	90	2	[They will carry the groceries]	Yes	1	Yes	1210	Hitvpc3020	critical-1VPC-P_6	92	2	[He will run the hills]	Yes	0	No	1990	FalseAlarmvpc3020	critical-1VPC-P_25	94	2	[We will throw in the towel]	Yes	0	No	1345	FalseAlarmvpc3020	critical-1VPC-P_22	102	2	[They will take the position]	No	1	No	1070	CorrRejectvpc3020	critical-1VPC-P_24	107	2	[They will wring out the rag]	Yes	1	Yes	1575	Hitvpc3020	critical-1VPC-P_13	115	2	[She will close up the cafթ]	Yes	0	No	850	FalseAlarmvpc3020	critical-1VPC-P_29	119	2	[We will smooth over the frosting]	No	1	No	1293	CorrRejectvpc3020	critical-1VPC-P_15	121	2	[She will set the boundaries]	Yes	1	Yes	1385	Hitvpc3020	critical-1VPC-P_17	122	2	[They will shoot down the hawk]	No	1	No	938	CorrRejectvpc3020	critical-1VPC-P_5	124	2	[He will pass over the dessert]	Yes	0	No	1027	FalseAlarmvpc3020	critical-1VPC-P_23	125	2	[They will check the essays]	Yes	1	Yes	959	Hitvpc3020	critical-1VPC-P_10	128	2	[She will check the books]	Yes	0	No	1000	FalseAlarmvpc3020	critical-1VPC-P_27	138	2	[We will bring the gifts]	Yes	1	Yes	1053	Hitvpc3020	critical-1VPC-P_11	140	2	[She will shut the computer]	Yes	1	Yes	1144	Hitvpc3020	critical-1VPC-P_32	142	2	[We will tie up the canoe]	Yes	1	Yes	890	Hitvpc3020	critical-1VPC-P_21	158	2	[They will lead off the dance]	Yes	0	No	1123	FalseAlarmvpc3020	critical-1VPC-P_31	160	2	[We will show the ponies]	Yes	1	Yes	984	Hitvpc3021	critical-1VPC-P_30	5	7	[We will mark off the pages]	No	1	No	1256	CorrRejectvpc3021	critical-1VPC-P_24	11	7	[They will find the word]	Yes	1	Yes	978	Hitvpc3021	critical-1VPC-P_27	13	7	[We will call the juror]	No	1	No	854	CorrRejectvpc3021	critical-1VPC-P_15	14	7	[She will patch the tire]	Yes	0	No	735	FalseAlarmvpc3021	critical-1VPC-P_1	15	7	[He will bring down the crowd]	Yes	1	Yes	1069	Hitvpc3021	critical-1VPC-P_22	24	7	[They will look over the part]	No	1	No	1324	CorrRejectvpc3021	critical-1VPC-P_17	25	7	[They will boil down the soup]	No	0	Yes	949	Missvpc3021	critical-1VPC-P_2	27	7	[He wil round up the fractions]	Yes	0	No	1124	FalseAlarmvpc3021	critical-1VPC-P_19	29	7	[They will keep the secret]	No	1	No	1037	CorrRejectvpc3021	critical-1VPC-P_29	41	7	[We will make over the model]	Yes	1	Yes	1064	Hitvpc3021	critical-1VPC-P_23	43	7	[They will throw the frisbee]	No	1	No	1313	CorrRejectvpc3021	critical-1VPC-P_28	45	7	[We will charge the phone]	Yes	1	Yes	858	Hitvpc3021	critical-1VPC-P_26	51	7	[We will bail out the prisoner]	No	1	No	623	CorrRejectvpc3021	critical-1VPC-P_18	59	7	[They will mark up the lumber]	Yes	0	No	924	FalseAlarmvpc3021	critical-1VPC-P_32	62	7	[We will buy the supplies]	Yes	1	Yes	1023	Hitvpc3021	critical-1VPC-P_4	76	7	[He will cut the meat]	Yes	1	Yes	699	Hitvpc3021	critical-1VPC-P_7	81	7	[He will see the rumors]	No	1	No	1213	CorrRejectvpc3021	critical-1VPC-P_10	82	7	[She will drive out the trucks]	Yes	0	No	1175	FalseAlarmvpc3021	critical-1VPC-P_5	84	7	[He will run over the trail]	No	0	Yes	978	Missvpc3021	critical-1VPC-P_21	86	7	[They will seal off the bag]	Yes	1	Yes	1095	Hitvpc3021	critical-1VPC-P_8	88	7	[He will hold the job]	No	0	Yes	1134	Missvpc3021	critical-1VPC-P_20	91	7	[They will pull the photo]	Yes	1	Yes	713	Hitvpc3021	critical-1VPC-P_6	92	7	[He will hold up the lizard]	No	1	No	1086	CorrRejectvpc3021	critical-1VPC-P_12	95	7	[She will give the prizes]	Yes	1	Yes	825	Hitvpc3021	critical-1VPC-P_13	112	7	[She will finish up the game]	Yes	1	Yes	946	Hitvpc3021	critical-1VPC-P_3	117	7	[He will eat the spaghetti]	No	1	No	1054	CorrRejectvpc3021	critical-1VPC-P_16	121	7	[She will buy the store]	Yes	1	Yes	753	Hitvpc3021	critical-1VPC-P_14	136	7	[She will clear out the drawer]	Yes	0	No	877	FalseAlarmvpc3021	critical-1VPC-P_11	145	7	[She will close the slide]	No	1	No	1037	CorrRejectvpc3021	critical-1VPC-P_25	148	7	[We will bring in the dog]	Yes	1	Yes	850	Hitvpc3021	critical-1VPC-P_9	149	7	[She will break off the stick]	Yes	1	Yes	800	Hitvpc3021	critical-1VPC-P_31	159	7	[We will set the timer]	No	1	No	1025	CorrRejectvpc3022	critical-1VPC-P_16	4	5	[She will buy out the store]	Yes	0	No	973	FalseAlarmvpc3022	critical-1VPC-P_4	7	5	[He will cut up the meat]	Yes	0	No	1066	FalseAlarmvpc3022	critical-1VPC-P_17	9	5	[They will boil the soup]	Yes	0	No	1580	FalseAlarmvpc3022	critical-1VPC-P_26	10	5	[We will bail the prisoner]	No	0	Yes	1285	Missvpc3022	critical-1VPC-P_27	12	5	[We will call forth the juror]	Yes	1	Yes	813	Hitvpc3022	critical-1VPC-P_22	16	5	[They will look the part]	No	0	Yes	1199	Missvpc3022	critical-1VPC-P_2	17	5	[He wil round the fractions]	Yes	1	Yes	1269	Hitvpc3022	critical-1VPC-P_11	26	5	[She will close down the slide]	Yes	1	Yes	1721	Hitvpc3022	critical-1VPC-P_15	27	5	[She will patch up the tire]	Yes	1	Yes	1654	Hitvpc3022	critical-1VPC-P_3	28	5	[He will eat up the spaghetti]	No	0	Yes	1489	Missvpc3022	critical-1VPC-P_12	37	5	[She will give away the prizes]	No	1	No	992	CorrRejectvpc3022	critical-1VPC-P_1	48	5	[He will bring the crowd]	No	1	No	1352	CorrRejectvpc3022	critical-1VPC-P_32	50	5	[We will buy up the supplies]	Yes	0	No	1002	FalseAlarmvpc3022	critical-1VPC-P_25	58	5	[We will bring the dog]	No	1	No	884	CorrRejectvpc3022	critical-1VPC-P_14	61	5	[She will clear the drawer]	Yes	1	Yes	1891	Hitvpc3022	critical-1VPC-P_13	68	5	[She will finish the game]	No	1	No	984	CorrRejectvpc3022	critical-1VPC-P_9	71	5	[She will break the stick]	No	1	No	1239	CorrRejectvpc3022	critical-1VPC-P_5	73	5	[He will run the trail]	No	1	No	1045	CorrRejectvpc3022	critical-1VPC-P_21	77	5	[They will seal the bag]	No	1	No	911	CorrRejectvpc3022	critical-1VPC-P_10	81	5	[She will drive the trucks]	No	0	Yes	347	Missvpc3022	critical-1VPC-P_29	82	5	[We will make the model]	Yes	0	No	1179	FalseAlarmvpc3022	critical-1VPC-P_20	83	5	[They will pull down the photo]	Yes	0	No	965	FalseAlarmvpc3022	critical-1VPC-P_19	91	5	[They will keep up the secret]	Yes	1	Yes	636	Hitvpc3022	critical-1VPC-P_8	94	5	[He will hold down the job]	Yes	0	No	807	FalseAlarmvpc3022	critical-1VPC-P_23	99	5	[They will throw over the frisbee]	No	0	Yes	1381	Missvpc3022	critical-1VPC-P_30	117	5	[We will mark the pages]	Yes	1	Yes	814	Hitvpc3022	critical-1VPC-P_28	119	5	[We will charge up the phone]	Yes	0	No	932	FalseAlarmvpc3022	critical-1VPC-P_6	126	5	[He will hold the lizard]	Yes	1	Yes	748	Hitvpc3022	critical-1VPC-P_7	128	5	[He will see through the rumors]	No	0	Yes	864	Missvpc3022	critical-1VPC-P_31	132	5	[We will set off the timer]	Yes	1	Yes	1000	Hitvpc3022	critical-1VPC-P_18	135	5	[They will mark the lumber]	Yes	1	Yes	1474	Hitvpc3022	critical-1VPC-P_24	145	5	[They will find out the word]	Yes	0	No	1449	FalseAlarmvpc3023	critical-1VPC-P_19	7	4	[They will carry up the groceries]	Yes	0	No	1624	FalseAlarmvpc3023	critical-1VPC-P_5	11	4	[He will pass the dessert]	Yes	1	Yes	1599	Hitvpc3023	critical-1VPC-P_26	12	4	[We will bust out the moves]	Yes	1	Yes	1471	Hitvpc3023	critical-1VPC-P_27	16	4	[We will bring forth the gifts]	Yes	0	No	1496	FalseAlarmvpc3023	critical-1VPC-P_13	28	4	[She will close the cafթ]	Yes	1	Yes	1677	Hitvpc3023	critical-1VPC-P_16	31	4	[She will throw the trash]	Yes	0	No	1709	FalseAlarmvpc3023	critical-1VPC-P_10	34	4	[She will check out the books]	Yes	1	Yes	2096	Hitvpc3023	critical-1VPC-P_32	39	4	[We will tie the canoe]	No	1	No	2057	CorrRejectvpc3023	critical-1VPC-P_6	43	4	[He will run up the hills]	Yes	1	Yes	1594	Hitvpc3023	critical-1VPC-P_3	48	4	[He will cover up the research]	Yes	0	No	1372	FalseAlarmvpc3023	critical-1VPC-P_23	55	4	[They will check over the essays]	No	1	No	1515	CorrRejectvpc3023	critical-1VPC-P_8	56	4	[He will strike the balance]	Yes	0	No	2014	FalseAlarmvpc3023	critical-1VPC-P_1	60	4	[He will hold the line]	Yes	1	Yes	1132	Hitvpc3023	critical-1VPC-P_15	62	4	[She will set up the boundaries]	Yes	0	No	1546	FalseAlarmvpc3023	critical-1VPC-P_21	81	4	[They will lead the dance]	Yes	1	Yes	1647	Hitvpc3023	critical-1VPC-P_17	82	4	[They will shoot the hawk]	Yes	1	Yes	1074	Hitvpc3023	critical-1VPC-P_24	89	4	[They will wring the rag]	No	1	No	2372	CorrRejectvpc3023	critical-1VPC-P_9	90	4	[She will pair the geese]	Yes	1	Yes	1433	Hitvpc3023	critical-1VPC-P_22	93	4	[They will take over the position]	Yes	1	Yes	1997	Hitvpc3023	critical-1VPC-P_25	96	4	[We will throw the towel]	Yes	1	Yes	1986	Hitvpc3023	critical-1VPC-P_14	97	4	[She will help out the waiter]	Yes	1	Yes	1242	Hitvpc3023	critical-1VPC-P_30	99	4	[We will pull off the sticker]	Yes	1	Yes	1466	Hitvpc3023	critical-1VPC-P_11	101	4	[She will shut down the computer]	No	1	No	1496	CorrRejectvpc3023	critical-1VPC-P_28	118	4	[We will dress the doll]	Yes	0	No	2256	FalseAlarmvpc3023	critical-1VPC-P_4	124	4	[He will lock the bicycle]	Yes	0	No	2316	FalseAlarmvpc3023	critical-1VPC-P_29	130	4	[We will smooth the frosting]	Yes	1	Yes	1530	Hitvpc3023	critical-1VPC-P_2	136	4	[He will buy up the land]	Yes	1	Yes	1719	Hitvpc3023	critical-1VPC-P_7	145	4	[He will think through the thoughts]	Yes	0	No	2459	FalseAlarmvpc3023	critical-1VPC-P_12	146	4	[She will drive the candidate]	Yes	0	No	2241	FalseAlarmvpc3023	critical-1VPC-P_31	160	4	[We will show off the ponies]	No	1	No	2621	CorrRejectvpc3024	critical-1VPC-P_8	7	8	[He will strike the balance]	Yes	0	No	959	FalseAlarmvpc3024	critical-1VPC-P_25	8	8	[We will throw the towel]	Yes	1	Yes	862	Hitvpc3024	critical-1VPC-P_20	9	8	[They will live the lie]	Yes	0	No	2233	FalseAlarmvpc3024	critical-1VPC-P_6	15	8	[He will run up the hills]	Yes	1	Yes	1173	Hitvpc3024	critical-1VPC-P_5	21	8	[He will pass the dessert]	Yes	1	Yes	872	Hitvpc3024	critical-1VPC-P_3	24	8	[He will cover up the research]	No	1	No	1305	CorrRejectvpc3024	critical-1VPC-P_15	29	8	[She will set up the boundaries]	Yes	0	No	994	FalseAlarmvpc3024	critical-1VPC-P_10	31	8	[She will check out the books]	Yes	1	Yes	927	Hitvpc3024	critical-1VPC-P_29	40	8	[We will smooth the frosting]	Yes	1	Yes	880	Hitvpc3024	critical-1VPC-P_31	45	8	[We will show off the ponies]	No	1	No	1183	CorrRejectvpc3024	critical-1VPC-P_30	51	8	[We will pull off the sticker]	No	0	Yes	1009	Missvpc3024	critical-1VPC-P_16	61	8	[She will throw the trash]	Yes	0	No	1237	FalseAlarmvpc3024	critical-1VPC-P_32	64	8	[We will tie the canoe]	Yes	0	No	923	FalseAlarmvpc3024	critical-1VPC-P_27	72	8	[We will bring forth the gifts]	No	1	No	1411	CorrRejectvpc3024	critical-1VPC-P_11	79	8	[She will shut down the computer]	No	1	No	1013	CorrRejectvpc3024	critical-1VPC-P_22	89	8	[They will take over the position]	Yes	1	Yes	942	Hitvpc3024	critical-1VPC-P_28	97	8	[We will dress the doll]	No	1	No	1412	CorrRejectvpc3024	critical-1VPC-P_2	99	8	[He will buy up the land]	Yes	1	Yes	810	Hitvpc3024	critical-1VPC-P_13	109	8	[She will close the cafթ]	Yes	1	Yes	987	Hitvpc3024	critical-1VPC-P_26	117	8	[We will bust out the moves]	Yes	1	Yes	854	Hitvpc3024	critical-1VPC-P_7	119	8	[He will think through the thoughts]	No	1	No	1675	CorrRejectvpc3024	critical-1VPC-P_12	126	8	[She will drive the candidate]	No	1	No	1155	CorrRejectvpc3024	critical-1VPC-P_23	127	8	[They will check over the essays]	No	1	No	1103	CorrRejectvpc3024	critical-1VPC-P_1	135	8	[He will hold the line]	Yes	1	Yes	697	Hitvpc3024	critical-1VPC-P_21	138	8	[They will lead the dance]	Yes	1	Yes	579	Hitvpc3024	critical-1VPC-P_4	140	8	[He will lock the bicycle]	Yes	0	No	606	FalseAlarmvpc3024	critical-1VPC-P_17	141	8	[They will shoot the hawk]	Yes	1	Yes	937	Hitvpc3024	critical-1VPC-P_14	142	8	[She will help out the waiter]	Yes	1	Yes	815	Hitvpc3024	critical-1VPC-P_18	147	8	[They will catch up the students]	Yes	1	Yes	766	Hitvpc3024	critical-1VPC-P_9	153	8	[She will pair the geese]	Yes	1	Yes	664	Hitvpc3024	critical-1VPC-P_19	154	8	[They will carry up the groceries]	Yes	0	No	1265	FalseAlarmvpc3024	critical-1VPC-P_24	160	8	[They will wring the rag]	No	1	No	852	CorrRejectvpc3025	critical-1VPC-P_30	2	6	[We will pull the sticker]	Yes	0	No	1292	FalseAlarmvpc3025	critical-1VPC-P_1	3	6	[He will hold down the line]	Yes	0	No	1132	FalseAlarmvpc3025	critical-1VPC-P_17	8	6	[They will shoot down the hawk]	Yes	0	No	567	FalseAlarmvpc3025	critical-1VPC-P_29	14	6	[We will smooth over the frosting]	No	1	No	959	CorrRejectvpc3025	critical-1VPC-P_23	16	6	[They will check the essays]	No	0	Yes	1019	Missvpc3025	critical-1VPC-P_11	19	6	[She will shut the computer]	Yes	1	Yes	1070	Hitvpc3025	critical-1VPC-P_8	27	6	[He will strike down the balance]	Yes	1	Yes	1152	Hitvpc3025	critical-1VPC-P_18	34	6	[They will catch the students]	Yes	0	No	849	FalseAlarmvpc3025	critical-1VPC-P_4	35	6	[He will lock up the bicycle]	No	0	Yes	1102	Missvpc3025	critical-1VPC-P_26	42	6	[We will bust the moves]	Yes	0	No	1175	FalseAlarmvpc3025	critical-1VPC-P_32	43	6	[We will tie up the canoe]	Yes	1	Yes	1391	Hitvpc3025	critical-1VPC-P_5	44	6	[He will pass over the dessert]	Yes	0	No	666	FalseAlarmvpc3025	critical-1VPC-P_20	51	6	[They will live down the lie]	Yes	1	Yes	719	Hitvpc3025	critical-1VPC-P_27	70	6	[We will bring the gifts]	Yes	1	Yes	839	Hitvpc3025	critical-1VPC-P_19	81	6	[They will carry the groceries]	Yes	1	Yes	629	Hitvpc3025	critical-1VPC-P_28	85	6	[We will dress up the doll]	Yes	1	Yes	758	Hitvpc3025	critical-1VPC-P_12	90	6	[She will drive away the candidate]	No	0	Yes	1060	Missvpc3025	critical-1VPC-P_14	91	6	[She will help the waiter]	Yes	0	No	1021	FalseAlarmvpc3025	critical-1VPC-P_10	100	6	[She will check the books]	No	1	No	1033	CorrRejectvpc3025	critical-1VPC-P_16	101	6	[She will throw out the trash]	Yes	1	Yes	1255	Hitvpc3025	critical-1VPC-P_24	103	6	[They will wring out the rag]	No	0	Yes	86	Missvpc3025	critical-1VPC-P_22	106	6	[They will take the position]	No	1	No	1253	CorrRejectvpc3025	critical-1VPC-P_13	112	6	[She will close up the cafթ]	No	1	No	510	CorrRejectvpc3025	critical-1VPC-P_7	114	6	[He will think the thoughts]	No	0	Yes	491	Missvpc3025	critical-1VPC-P_25	122	6	[We will throw in the towel]	No	1	No	1502	CorrRejectvpc3025	critical-1VPC-P_21	126	6	[They will lead off the dance]	No	1	No	373	CorrRejectvpc3025	critical-1VPC-P_15	131	6	[She will set the boundaries]	Yes	1	Yes	977	Hitvpc3025	critical-1VPC-P_6	138	6	[He will run the hills]	Yes	0	No	1065	FalseAlarmvpc3025	critical-1VPC-P_9	144	6	[She will pair off the geese]	No	1	No	508	CorrRejectvpc3025	critical-1VPC-P_2	159	6	[He will buy the land]	No	1	No	1261	CorrRejectvpc3026	critical-1VPC-P_2	6	8	[He will buy up the land]	Yes	1	Yes	1025	Hitvpc3026	critical-1VPC-P_27	15	8	[We will bring forth the gifts]	Yes	0	No	1441	FalseAlarmvpc3026	critical-1VPC-P_26	20	8	[We will bust out the moves]	Yes	1	Yes	1063	Hitvpc3026	critical-1VPC-P_13	25	8	[She will close the cafթ]	Yes	1	Yes	850	Hitvpc3026	critical-1VPC-P_14	31	8	[She will help out the waiter]	No	0	Yes	1529	Missvpc3026	critical-1VPC-P_23	39	8	[They will check over the essays]	Yes	0	No	1008	FalseAlarmvpc3026	critical-1VPC-P_31	45	8	[We will show off the ponies]	Yes	0	No	1140	FalseAlarmvpc3026	critical-1VPC-P_12	49	8	[She will drive the candidate]	Yes	0	No	321	FalseAlarmvpc3026	critical-1VPC-P_17	64	8	[They will shoot the hawk]	Yes	1	Yes	968	Hitvpc3026	critical-1VPC-P_29	68	8	[We will smooth the frosting]	Yes	1	Yes	1030	Hitvpc3026	critical-1VPC-P_6	77	8	[He will run up the hills]	Yes	1	Yes	1499	Hitvpc3026	critical-1VPC-P_24	79	8	[They will wring the rag]	No	1	No	1373	CorrRejectvpc3026	critical-1VPC-P_21	82	8	[They will lead the dance]	Yes	1	Yes	970	Hitvpc3026	critical-1VPC-P_9	91	8	[She will pair the geese]	Yes	1	Yes	1088	Hitvpc3026	critical-1VPC-P_22	97	8	[They will take over the position]	Yes	1	Yes	2163	Hitvpc3026	critical-1VPC-P_7	98	8	[He will think through the thoughts]	No	1	No	749	CorrRejectvpc3026	critical-1VPC-P_25	117	8	[We will throw the towel]	Yes	1	Yes	1091	Hitvpc3026	critical-1VPC-P_16	121	8	[She will throw the trash]	No	1	No	1644	CorrRejectvpc3026	critical-1VPC-P_4	122	8	[He will lock the bicycle]	No	1	No	1855	CorrRejectvpc3026	critical-1VPC-P_15	123	8	[She will set up the boundaries]	No	1	No	1287	CorrRejectvpc3026	critical-1VPC-P_8	126	8	[He will strike the balance]	No	1	No	1755	CorrRejectvpc3026	critical-1VPC-P_3	127	8	[He will cover up the research]	No	1	No	1145	CorrRejectvpc3026	critical-1VPC-P_10	128	8	[She will check out the books]	Yes	1	Yes	1304	Hitvpc3026	critical-1VPC-P_19	129	8	[They will carry up the groceries]	No	1	No	1285	CorrRejectvpc3026	critical-1VPC-P_18	131	8	[They will catch up the students]	Yes	1	Yes	1279	Hitvpc3026	critical-1VPC-P_32	135	8	[We will tie the canoe]	No	1	No	1510	CorrRejectvpc3026	critical-1VPC-P_5	141	8	[He will pass the dessert]	No	0	Yes	1418	Missvpc3026	critical-1VPC-P_1	153	8	[He will hold the line]	Yes	1	Yes	757	Hitvpc3026	critical-1VPC-P_30	157	8	[We will pull off the sticker]	Yes	1	Yes	906	Hitvpc3026	critical-1VPC-P_28	158	8	[We will dress the doll]	Yes	0	No	965	FalseAlarmvpc3026	critical-1VPC-P_11	159	8	[She will shut down the computer]	Yes	0	No	332	FalseAlarmvpc3027	critical-1VPC-P_25	2	4	[We will throw the towel]	Yes	1	Yes	1119	Hitvpc3027	critical-1VPC-P_29	4	4	[We will smooth the frosting]	Yes	1	Yes	1065	Hitvpc3027	critical-1VPC-P_21	7	4	[They will lead the dance]	Yes	1	Yes	1368	Hitvpc3027	critical-1VPC-P_17	8	4	[They will shoot the hawk]	Yes	1	Yes	1243	Hitvpc3027	critical-1VPC-P_3	9	4	[He will cover up the research]	Yes	0	No	1478	FalseAlarmvpc3027	critical-1VPC-P_1	20	4	[He will hold the line]	Yes	1	Yes	1481	Hitvpc3027	critical-1VPC-P_2	22	4	[He will buy up the land]	Yes	1	Yes	1802	Hitvpc3027	critical-1VPC-P_32	31	4	[We will tie the canoe]	No	1	No	1126	CorrRejectvpc3027	critical-1VPC-P_19	41	4	[They will carry up the groceries]	No	1	No	1203	CorrRejectvpc3027	critical-1VPC-P_10	64	4	[She will check out the books]	Yes	1	Yes	1651	Hitvpc3027	critical-1VPC-P_23	67	4	[They will check over the essays]	Yes	0	No	1877	FalseAlarmvpc3027	critical-1VPC-P_4	76	4	[He will lock the bicycle]	Yes	0	No	1315	FalseAlarmvpc3027	critical-1VPC-P_24	77	4	[They will wring the rag]	Yes	0	No	1124	FalseAlarmvpc3027	critical-1VPC-P_30	79	4	[We will pull off the sticker]	No	0	Yes	2136	Missvpc3027	critical-1VPC-P_16	80	4	[She will throw the trash]	No	1	No	1405	CorrRejectvpc3027	critical-1VPC-P_28	90	4	[We will dress the doll]	No	1	No	1583	CorrRejectvpc3027	critical-1VPC-P_12	92	4	[She will drive the candidate]	No	1	No	1921	CorrRejectvpc3027	critical-1VPC-P_7	93	4	[He will think through the thoughts]	No	1	No	1452	CorrRejectvpc3027	critical-1VPC-P_26	97	4	[We will bust out the moves]	Yes	1	Yes	1366	Hitvpc3027	critical-1VPC-P_27	105	4	[We will bring forth the gifts]	No	1	No	1306	CorrRejectvpc3027	critical-1VPC-P_31	109	4	[We will show off the ponies]	Yes	0	No	1473	FalseAlarmvpc3027	critical-1VPC-P_6	110	4	[He will run up the hills]	Yes	1	Yes	1272	Hitvpc3027	critical-1VPC-P_22	113	4	[They will take over the position]	Yes	1	Yes	1175	Hitvpc3027	critical-1VPC-P_14	114	4	[She will help out the waiter]	No	0	Yes	1418	Missvpc3027	critical-1VPC-P_8	115	4	[He will strike the balance]	No	1	No	1028	CorrRejectvpc3027	critical-1VPC-P_13	118	4	[She will close the cafթ]	Yes	1	Yes	1114	Hitvpc3027	critical-1VPC-P_5	126	4	[He will pass the dessert]	Yes	1	Yes	1047	Hitvpc3027	critical-1VPC-P_15	130	4	[She will set up the boundaries]	Yes	0	No	1612	FalseAlarmvpc3027	critical-1VPC-P_11	132	4	[She will shut down the computer]	Yes	0	No	1525	FalseAlarmvpc3027	critical-1VPC-P_9	143	4	[She will pair the geese]	Yes	1	Yes	1429	Hitvpc3027	critical-1VPC-P_20	144	4	[They will live the lie]	Yes	0	No	1673	FalseAlarmvpc3027	critical-1VPC-P_18	154	4	[They will catch up the students]	Yes	1	Yes	1174	Hitvpc3028	critical-1VPC-P_24	8	6	[They will wring out the rag]	Yes	1	Yes	1793	Hitvpc3028	critical-1VPC-P_8	11	6	[He will strike down the balance]	Yes	1	Yes	1905	Hitvpc3028	critical-1VPC-P_6	13	6	[He will run the hills]	No	1	No	1730	CorrRejectvpc3028	critical-1VPC-P_25	19	6	[We will throw in the towel]	No	1	No	2384	CorrRejectvpc3028	critical-1VPC-P_22	21	6	[They will take the position]	No	1	No	1473	CorrRejectvpc3028	critical-1VPC-P_5	25	6	[He will pass over the dessert]	No	1	No	1265	CorrRejectvpc3028	critical-1VPC-P_13	26	6	[She will close up the caf_]	No	1	No	2097	CorrRejectvpc3028	critical-1VPC-P_29	30	6	[We will smooth over the frosting]	No	1	No	1328	CorrRejectvpc3028	critical-1VPC-P_18	31	6	[They will catch the students]	No	1	No	1072	CorrRejectvpc3028	critical-1VPC-P_23	35	6	[They will check the essays]	Yes	1	Yes	2066	Hitvpc3028	critical-1VPC-P_21	44	6	[They will lead off the dance]	No	1	No	1138	CorrRejectvpc3028	critical-1VPC-P_30	48	6	[We will pull the sticker]	No	1	No	1106	CorrRejectvpc3028	critical-1VPC-P_19	54	6	[They will carry the groceries]	Yes	1	Yes	1490	Hitvpc3028	critical-1VPC-P_14	68	6	[She will help the waiter]	Yes	0	No	1010	FalseAlarmvpc3028	critical-1VPC-P_9	71	6	[She will pair off the geese]	Yes	0	No	1491	FalseAlarmvpc3028	critical-1VPC-P_2	78	6	[He will buy the land]	Yes	0	No	1392	FalseAlarmvpc3028	critical-1VPC-P_26	82	6	[We will bust the moves]	No	1	No	1004	CorrRejectvpc3028	critical-1VPC-P_12	102	6	[She will drive away the candidate]	Yes	1	Yes	834	Hitvpc3028	critical-1VPC-P_27	115	6	[We will bring the gifts]	No	0	Yes	816	Missvpc3028	critical-1VPC-P_16	119	6	[She will throw out the trash]	Yes	1	Yes	1443	Hitvpc3028	critical-1VPC-P_3	125	6	[He will cover the research]	Yes	1	Yes	804	Hitvpc3028	critical-1VPC-P_20	130	6	[They will live down the lie]	Yes	1	Yes	1169	Hitvpc3028	critical-1VPC-P_15	132	6	[She will set the boundaries]	Yes	1	Yes	916	Hitvpc3028	critical-1VPC-P_1	135	6	[He will hold down the line]	No	1	No	1393	CorrRejectvpc3028	critical-1VPC-P_7	136	6	[He will think the thoughts]	Yes	1	Yes	1811	Hitvpc3028	critical-1VPC-P_4	140	6	[He will lock up the bicycle]	Yes	1	Yes	1074	Hitvpc3028	critical-1VPC-P_11	144	6	[She will shut the computer]	Yes	1	Yes	1714	Hitvpc3028	critical-1VPC-P_10	145	6	[She will check the books]	No	1	No	1184	CorrRejectvpc3028	critical-1VPC-P_32	146	6	[We will tie up the canoe]	Yes	1	Yes	1203	Hitvpc3028	critical-1VPC-P_31	159	6	[We will show the ponies]	Yes	1	Yes	931	Hitvpc3029	critical-1VPC-P_12	6	2	[She will drive away the candidate]	Yes	1	Yes	1229	Hitvpc3029	critical-1VPC-P_4	8	2	[He will lock up the bicycle]	Yes	1	Yes	1261	Hitvpc3029	critical-1VPC-P_30	15	2	[We will pull the sticker]	No	1	No	2130	CorrRejectvpc3029	critical-1VPC-P_11	18	2	[She will shut the computer]	Yes	1	Yes	1815	Hitvpc3029	critical-1VPC-P_6	20	2	[He will run the hills]	No	1	No	1758	CorrRejectvpc3029	critical-1VPC-P_20	27	2	[They will live down the lie]	Yes	1	Yes	1905	Hitvpc3029	critical-1VPC-P_7	34	2	[He will think the thoughts]	Yes	1	Yes	1230	Hitvpc3029	critical-1VPC-P_18	35	2	[They will catch the students]	No	1	No	1583	CorrRejectvpc3029	critical-1VPC-P_24	54	2	[They will wring out the rag]	Yes	1	Yes	1294	Hitvpc3029	critical-1VPC-P_9	56	2	[She will pair off the geese]	No	1	No	1001	CorrRejectvpc3029	critical-1VPC-P_23	67	2	[They will check the essays]	No	0	Yes	1714	Missvpc3029	critical-1VPC-P_1	70	2	[He will hold down the line]	Yes	0	No	1658	FalseAlarmvpc3029	critical-1VPC-P_25	72	2	[We will throw in the towel]	No	1	No	1290	CorrRejectvpc3029	critical-1VPC-P_15	81	2	[She will set the boundaries]	Yes	1	Yes	1057	Hitvpc3029	critical-1VPC-P_8	100	2	[He will strike down the balance]	Yes	1	Yes	1340	Hitvpc3029	critical-1VPC-P_22	103	2	[They will take the position]	No	1	No	1237	CorrRejectvpc3029	critical-1VPC-P_16	104	2	[She will throw out the trash]	Yes	1	Yes	1273	Hitvpc3029	critical-1VPC-P_28	105	2	[We will dress up the doll]	Yes	1	Yes	1141	Hitvpc3029	critical-1VPC-P_21	111	2	[They will lead off the dance]	Yes	0	No	1898	FalseAlarmvpc3029	critical-1VPC-P_29	112	2	[We will smooth over the frosting]	No	1	No	1285	CorrRejectvpc3029	critical-1VPC-P_27	113	2	[We will bring the gifts]	Yes	1	Yes	1330	Hitvpc3029	critical-1VPC-P_13	120	2	[She will close up the cafթ]	No	1	No	1338	CorrRejectvpc3029	critical-1VPC-P_5	122	2	[He will pass over the dessert]	Yes	0	No	2173	FalseAlarmvpc3029	critical-1VPC-P_32	126	2	[We will tie up the canoe]	Yes	1	Yes	1338	Hitvpc3029	critical-1VPC-P_19	128	2	[They will carry the groceries]	Yes	1	Yes	1297	Hitvpc3029	critical-1VPC-P_26	131	2	[We will bust the moves]	No	1	No	1602	CorrRejectvpc3029	critical-1VPC-P_2	132	2	[He will buy the land]	No	1	No	1602	CorrRejectvpc3029	critical-1VPC-P_14	139	2	[She will help the waiter]	No	1	No	1165	CorrRejectvpc3029	critical-1VPC-P_31	144	2	[We will show the ponies]	Yes	1	Yes	1140	Hitvpc3029	critical-1VPC-P_10	145	2	[She will check the books]	No	1	No	1806	CorrRejectvpc3029	critical-1VPC-P_3	151	2	[He will cover the research]	Yes	1	Yes	1512	Hitvpc3029	critical-1VPC-P_17	157	2	[They will shoot down the hawk]	No	1	No	1153	CorrRejectvpc303	critical-1VPC-P_23	2	6	[They will check the essays]	Yes	1	Yes	2000	Hitvpc303	critical-1VPC-P_12	9	6	[She will drive away the candidate]	Yes	1	Yes	913	Hitvpc303	critical-1VPC-P_13	16	6	[She will close up the cafթ]	No	1	No	1458	CorrRejectvpc303	critical-1VPC-P_4	32	6	[He will lock up the bicycle]	Yes	1	Yes	1070	Hitvpc303	critical-1VPC-P_28	42	6	[We will dress up the doll]	Yes	1	Yes	1022	Hitvpc303	critical-1VPC-P_27	43	6	[We will bring the gifts]	No	0	Yes	957	Missvpc303	critical-1VPC-P_21	44	6	[They will lead off the dance]	No	1	No	1343	CorrRejectvpc303	critical-1VPC-P_18	48	6	[They will catch the students]	No	1	No	864	CorrRejectvpc303	critical-1VPC-P_30	53	6	[We will pull the sticker]	Yes	0	No	945	FalseAlarmvpc303	critical-1VPC-P_9	63	6	[She will pair off the geese]	Yes	0	No	1041	FalseAlarmvpc303	critical-1VPC-P_14	76	6	[She will help the waiter]	Yes	0	No	977	FalseAlarmvpc303	critical-1VPC-P_1	82	6	[He will hold down the line]	Yes	0	No	1002	FalseAlarmvpc303	critical-1VPC-P_17	88	6	[They will shoot down the hawk]	Yes	0	No	908	FalseAlarmvpc303	critical-1VPC-P_19	97	6	[They will carry the groceries]	No	0	Yes	701	Missvpc303	critical-1VPC-P_29	99	6	[We will smooth over the frosting]	No	1	No	750	CorrRejectvpc303	critical-1VPC-P_11	100	6	[She will shut the computer]	No	0	Yes	993	Missvpc303	critical-1VPC-P_26	105	6	[We will bust the moves]	No	1	No	832	CorrRejectvpc303	critical-1VPC-P_25	106	6	[We will throw in the towel]	Yes	0	No	841	FalseAlarmvpc303	critical-1VPC-P_16	111	6	[She will throw out the trash]	No	0	Yes	641	Missvpc303	critical-1VPC-P_24	112	6	[They will wring out the rag]	No	0	Yes	800	Missvpc303	critical-1VPC-P_7	117	6	[He will think the thoughts]	Yes	1	Yes	850	Hitvpc303	critical-1VPC-P_5	119	6	[He will pass over the dessert]	No	1	No	833	CorrRejectvpc303	critical-1VPC-P_32	127	6	[We will tie up the canoe]	No	0	Yes	812	Missvpc303	critical-1VPC-P_31	131	6	[We will show the ponies]	Yes	1	Yes	784	Hitvpc303	critical-1VPC-P_2	135	6	[He will buy the land]	No	1	No	881	CorrRejectvpc303	critical-1VPC-P_3	139	6	[He will cover the research]	No	0	Yes	817	Missvpc303	critical-1VPC-P_10	141	6	[She will check the books]	No	1	No	1087	CorrRejectvpc303	critical-1VPC-P_15	142	6	[She will set the boundaries]	Yes	1	Yes	879	Hitvpc303	critical-1VPC-P_22	145	6	[They will take the position]	Yes	0	No	1036	FalseAlarmvpc303	critical-1VPC-P_8	154	6	[He will strike down the balance]	No	0	Yes	924	Missvpc303	critical-1VPC-P_6	156	6	[He will run the hills]	Yes	0	No	880	FalseAlarmvpc303	critical-1VPC-P_20	157	6	[They will live down the lie]	Yes	1	Yes	1216	Hitvpc3030	critical-1VPC-P_4	8	5	[He will cut up the meat]	Yes	0	No	986	FalseAlarmvpc3030	critical-1VPC-P_1	12	5	[He will bring the crowd]	No	1	No	1266	CorrRejectvpc3030	critical-1VPC-P_18	13	5	[They will mark the lumber]	Yes	1	Yes	1074	Hitvpc3030	critical-1VPC-P_5	15	5	[He will run the trail]	Yes	0	No	1368	FalseAlarmvpc3030	critical-1VPC-P_25	18	5	[We will bring the dog]	Yes	0	No	888	FalseAlarmvpc3030	critical-1VPC-P_28	29	5	[We will charge up the phone]	Yes	0	No	982	FalseAlarmvpc3030	critical-1VPC-P_17	34	5	[They will boil the soup]	Yes	0	No	1793	FalseAlarmvpc3030	critical-1VPC-P_8	44	5	[He will hold down the job]	Yes	0	No	1105	FalseAlarmvpc3030	critical-1VPC-P_21	53	5	[They will seal the bag]	No	1	No	1790	CorrRejectvpc3030	critical-1VPC-P_11	57	5	[She will close down the slide]	No	0	Yes	1052	Missvpc3030	critical-1VPC-P_13	58	5	[She will finish the game]	Yes	0	No	1272	FalseAlarmvpc3030	critical-1VPC-P_12	59	5	[She will give away the prizes]	Yes	0	No	1029	FalseAlarmvpc3030	critical-1VPC-P_9	74	5	[She will break the stick]	No	1	No	1371	CorrRejectvpc3030	critical-1VPC-P_3	75	5	[He will eat up the spaghetti]	Yes	1	Yes	1677	Hitvpc3030	critical-1VPC-P_14	80	5	[She will clear the drawer]	No	0	Yes	967	Missvpc3030	critical-1VPC-P_24	85	5	[They will find out the word]	No	1	No	484	CorrRejectvpc3030	critical-1VPC-P_31	86	5	[We will set off the timer]	Yes	1	Yes	822	Hitvpc3030	critical-1VPC-P_16	90	5	[She will buy out the store]	Yes	0	No	1786	FalseAlarmvpc3030	critical-1VPC-P_20	92	5	[They will pull down the photo]	Yes	0	No	1951	FalseAlarmvpc3030	critical-1VPC-P_32	97	5	[We will buy up the supplies]	Yes	0	No	1104	FalseAlarmvpc3030	critical-1VPC-P_7	98	5	[He will see through the rumors]	Yes	1	Yes	1006	Hitvpc3030	critical-1VPC-P_23	100	5	[They will throw over the frisbee]	Yes	1	Yes	984	Hitvpc3030	critical-1VPC-P_27	102	5	[We will call forth the juror]	No	0	Yes	807	Missvpc3030	critical-1VPC-P_29	104	5	[We will make the model]	No	1	No	2025	CorrRejectvpc3030	critical-1VPC-P_15	109	5	[She will patch up the tire]	No	0	Yes	1492	Missvpc3030	critical-1VPC-P_26	117	5	[We will bail the prisoner]	Yes	1	Yes	743	Hitvpc3030	critical-1VPC-P_2	139	5	[He wil round the fractions]	No	0	Yes	425	Missvpc3030	critical-1VPC-P_10	142	5	[She will drive the trucks]	Yes	1	Yes	943	Hitvpc3030	critical-1VPC-P_22	145	5	[They will look the part]	Yes	1	Yes	1120	Hitvpc3030	critical-1VPC-P_6	158	5	[He will hold the lizard]	No	0	Yes	431	Missvpc3031	critical-1VPC-P_13	1	2	[She will close up the cafթ]	Yes	0	No	794	FalseAlarmvpc3031	critical-1VPC-P_17	2	2	[They will shoot down the hawk]	No	1	No	1260	CorrRejectvpc3031	critical-1VPC-P_5	5	2	[He will pass over the dessert]	Yes	0	No	1648	FalseAlarmvpc3031	critical-1VPC-P_4	12	2	[He will lock up the bicycle]	Yes	1	Yes	1161	Hitvpc3031	critical-1VPC-P_6	19	2	[He will run the hills]	Yes	0	No	862	FalseAlarmvpc3031	critical-1VPC-P_9	28	2	[She will pair off the geese]	No	1	No	1124	CorrRejectvpc3031	critical-1VPC-P_10	31	2	[She will check the books]	No	1	No	1014	CorrRejectvpc3031	critical-1VPC-P_29	50	2	[We will smooth over the frosting]	No	1	No	1535	CorrRejectvpc3031	critical-1VPC-P_19	52	2	[They will carry the groceries]	Yes	1	Yes	765	Hitvpc3031	critical-1VPC-P_12	54	2	[She will drive away the candidate]	Yes	1	Yes	945	Hitvpc3031	critical-1VPC-P_8	55	2	[He will strike down the balance]	Yes	1	Yes	974	Hitvpc3031	critical-1VPC-P_1	57	2	[He will hold down the line]	Yes	0	No	781	FalseAlarmvpc3031	critical-1VPC-P_26	59	2	[We will bust the moves]	No	1	No	1209	CorrRejectvpc3031	critical-1VPC-P_11	63	2	[She will shut the computer]	Yes	1	Yes	780	Hitvpc3031	critical-1VPC-P_31	64	2	[We will show the ponies]	Yes	1	Yes	832	Hitvpc3031	critical-1VPC-P_20	68	2	[They will live down the lie]	Yes	1	Yes	705	Hitvpc3031	critical-1VPC-P_32	72	2	[We will tie up the canoe]	Yes	1	Yes	930	Hitvpc3031	critical-1VPC-P_23	76	2	[They will check the essays]	Yes	1	Yes	1179	Hitvpc3031	critical-1VPC-P_28	80	2	[We will dress up the doll]	Yes	1	Yes	767	Hitvpc3031	critical-1VPC-P_3	82	2	[He will cover the research]	Yes	1	Yes	671	Hitvpc3031	critical-1VPC-P_25	83	2	[We will throw in the towel]	No	1	No	1059	CorrRejectvpc3031	critical-1VPC-P_24	93	2	[They will wring out the rag]	Yes	1	Yes	1316	Hitvpc3031	critical-1VPC-P_16	94	2	[She will throw out the trash]	Yes	1	Yes	736	Hitvpc3031	critical-1VPC-P_14	102	2	[She will help the waiter]	Yes	0	No	1394	FalseAlarmvpc3031	critical-1VPC-P_30	109	2	[We will pull the sticker]	No	1	No	1357	CorrRejectvpc3031	critical-1VPC-P_22	113	2	[They will take the position]	No	1	No	1120	CorrRejectvpc3031	critical-1VPC-P_7	115	2	[He will think the thoughts]	Yes	1	Yes	775	Hitvpc3031	critical-1VPC-P_15	127	2	[She will set the boundaries]	Yes	1	Yes	690	Hitvpc3031	critical-1VPC-P_2	130	2	[He will buy the land]	No	1	No	1136	CorrRejectvpc3031	critical-1VPC-P_21	141	2	[They will lead off the dance]	No	1	No	1374	CorrRejectvpc3031	critical-1VPC-P_27	148	2	[We will bring the gifts]	Yes	1	Yes	1312	Hitvpc3031	critical-1VPC-P_18	159	2	[They will catch the students]	No	1	No	1207	CorrRejectvpc3032	critical-1VPC-P_23	10	6	[They will check the essays]	Yes	1	Yes	812	Hitvpc3032	critical-1VPC-P_14	12	6	[She will help the waiter]	No	1	No	1089	CorrRejectvpc3032	critical-1VPC-P_4	13	6	[He will lock up the bicycle]	Yes	1	Yes	1238	Hitvpc3032	critical-1VPC-P_12	15	6	[She will drive away the candidate]	Yes	1	Yes	932	Hitvpc3032	critical-1VPC-P_24	16	6	[They will wring out the rag]	Yes	1	Yes	813	Hitvpc3032	critical-1VPC-P_21	20	6	[They will lead off the dance]	No	1	No	1000	CorrRejectvpc3032	critical-1VPC-P_26	23	6	[We will bust the moves]	No	1	No	1246	CorrRejectvpc3032	critical-1VPC-P_7	28	6	[He will think the thoughts]	Yes	1	Yes	660	Hitvpc3032	critical-1VPC-P_9	32	6	[She will pair off the geese]	No	1	No	1033	CorrRejectvpc3032	critical-1VPC-P_17	35	6	[They will shoot down the hawk]	No	1	No	856	CorrRejectvpc3032	critical-1VPC-P_25	41	6	[We will throw in the towel]	No	1	No	1022	CorrRejectvpc3032	critical-1VPC-P_22	42	6	[They will take the position]	No	1	No	1169	CorrRejectvpc3032	critical-1VPC-P_30	46	6	[We will pull the sticker]	No	1	No	1402	CorrRejectvpc3032	critical-1VPC-P_5	47	6	[He will pass over the dessert]	No	1	No	1025	CorrRejectvpc3032	critical-1VPC-P_28	51	6	[We will dress up the doll]	Yes	1	Yes	879	Hitvpc3032	critical-1VPC-P_32	52	6	[We will tie up the canoe]	Yes	1	Yes	1117	Hitvpc3032	critical-1VPC-P_20	55	6	[They will live down the lie]	Yes	1	Yes	1064	Hitvpc3032	critical-1VPC-P_27	63	6	[We will bring the gifts]	Yes	1	Yes	1342	Hitvpc3032	critical-1VPC-P_29	64	6	[We will smooth over the frosting]	No	1	No	1112	CorrRejectvpc3032	critical-1VPC-P_6	87	6	[He will run the hills]	No	1	No	1035	CorrRejectvpc3032	critical-1VPC-P_8	92	6	[He will strike down the balance]	Yes	1	Yes	895	Hitvpc3032	critical-1VPC-P_18	97	6	[They will catch the students]	No	1	No	739	CorrRejectvpc3032	critical-1VPC-P_1	99	6	[He will hold down the line]	No	1	No	743	CorrRejectvpc3032	critical-1VPC-P_10	110	6	[She will check the books]	No	1	No	1103	CorrRejectvpc3032	critical-1VPC-P_31	112	6	[We will show the ponies]	Yes	1	Yes	802	Hitvpc3032	critical-1VPC-P_13	115	6	[She will close up the cafթ]	No	1	No	1274	CorrRejectvpc3032	critical-1VPC-P_2	122	6	[He will buy the land]	Yes	0	No	1750	FalseAlarmvpc3032	critical-1VPC-P_3	134	6	[He will cover the research]	Yes	1	Yes	852	Hitvpc3032	critical-1VPC-P_16	149	6	[She will throw out the trash]	Yes	1	Yes	727	Hitvpc3032	critical-1VPC-P_15	150	6	[She will set the boundaries]	Yes	1	Yes	623	Hitvpc3032	critical-1VPC-P_11	154	6	[She will shut the computer]	Yes	1	Yes	715	Hitvpc3032	critical-1VPC-P_19	158	6	[They will carry the groceries]	Yes	1	Yes	623	Hitvpc3033	critical-1VPC-P_13	2	1	[She will finish the game]	Yes	0	No	2273	FalseAlarmvpc3033	critical-1VPC-P_12	5	1	[She will give away the prizes]	Yes	0	No	1732	FalseAlarmvpc3033	critical-1VPC-P_21	8	1	[They will seal the bag]	Yes	0	No	1612	FalseAlarmvpc3033	critical-1VPC-P_22	15	1	[They will look the part]	Yes	1	Yes	1664	Hitvpc3033	critical-1VPC-P_29	19	1	[We will make the model]	No	1	No	1726	CorrRejectvpc3033	critical-1VPC-P_23	32	1	[They will throw over the frisbee]	Yes	1	Yes	1494	Hitvpc3033	critical-1VPC-P_7	41	1	[He will see through the rumors]	No	0	Yes	1449	Missvpc3033	critical-1VPC-P_15	42	1	[She will patch up the tire]	Yes	1	Yes	1015	Hitvpc3033	critical-1VPC-P_31	43	1	[We will set off the timer]	Yes	1	Yes	1492	Hitvpc3033	critical-1VPC-P_18	44	1	[They will mark the lumber]	Yes	1	Yes	952	Hitvpc3033	critical-1VPC-P_20	45	1	[They will pull down the photo]	No	1	No	1237	CorrRejectvpc3033	critical-1VPC-P_30	46	1	[We will mark the pages]	Yes	1	Yes	1156	Hitvpc3033	critical-1VPC-P_26	48	1	[We will bail the prisoner]	Yes	1	Yes	945	Hitvpc3033	critical-1VPC-P_32	52	1	[We will buy up the supplies]	No	1	No	1743	CorrRejectvpc3033	critical-1VPC-P_24	66	1	[They will find out the word]	No	1	No	1262	CorrRejectvpc3033	critical-1VPC-P_14	72	1	[She will clear the drawer]	Yes	1	Yes	861	Hitvpc3033	critical-1VPC-P_11	77	1	[She will close down the slide]	Yes	1	Yes	950	Hitvpc3033	critical-1VPC-P_17	78	1	[They will boil the soup]	No	1	No	1431	CorrRejectvpc3033	critical-1VPC-P_5	80	1	[He will run the trail]	No	1	No	1010	CorrRejectvpc3033	critical-1VPC-P_6	81	1	[He will hold the lizard]	Yes	1	Yes	1358	Hitvpc3033	critical-1VPC-P_1	85	1	[He will bring the crowd]	No	1	No	1673	CorrRejectvpc3033	critical-1VPC-P_27	106	1	[We will call forth the juror]	Yes	1	Yes	1092	Hitvpc3033	critical-1VPC-P_19	108	1	[They will keep up the secret]	No	0	Yes	1343	Missvpc3033	critical-1VPC-P_2	126	1	[He wil round the fractions]	Yes	1	Yes	1213	Hitvpc3033	critical-1VPC-P_25	127	1	[We will bring the dog]	No	1	No	1475	CorrRejectvpc3033	critical-1VPC-P_28	129	1	[We will charge up the phone]	Yes	0	No	1704	FalseAlarmvpc3033	critical-1VPC-P_8	131	1	[He will hold down the job]	No	1	No	1580	CorrRejectvpc3033	critical-1VPC-P_3	139	1	[He will eat up the spaghetti]	Yes	1	Yes	1092	Hitvpc3033	critical-1VPC-P_9	145	1	[She will break the stick]	No	1	No	1199	CorrRejectvpc3033	critical-1VPC-P_16	150	1	[She will buy out the store]	No	1	No	1340	CorrRejectvpc3033	critical-1VPC-P_10	156	1	[She will drive the trucks]	Yes	1	Yes	1013	Hitvpc3033	critical-1VPC-P_4	157	1	[He will cut up the meat]	No	1	No	1219	CorrRejectvpc3034	critical-1VPC-P_18	5	3	[They will mark up the lumber]	No	1	No	630	CorrRejectvpc3034	critical-1VPC-P_28	11	3	[We will charge the phone]	Yes	1	Yes	70	Hitvpc3034	critical-1VPC-P_32	21	3	[We will buy the supplies]	Yes	1	Yes	1008	Hitvpc3034	critical-1VPC-P_29	28	3	[We will make over the model]	No	0	Yes	8	Missvpc3034	critical-1VPC-P_3	29	3	[He will eat the spaghetti]	No	1	No	22	CorrRejectvpc3034	critical-1VPC-P_14	32	3	[She will clear out the drawer]	No	1	No	302	CorrRejectvpc3034	critical-1VPC-P_11	33	3	[She will close the slide]	No	1	No	36	CorrRejectvpc3034	critical-1VPC-P_12	35	3	[She will give the prizes]	Yes	1	Yes	8	Hitvpc3034	critical-1VPC-P_10	37	3	[She will drive out the trucks]	Yes	0	No	197	FalseAlarmvpc3034	critical-1VPC-P_15	48	3	[She will patch the tire]	Yes	0	No	100	FalseAlarmvpc3034	critical-1VPC-P_7	53	3	[He will see the rumors]	Yes	0	No	396	FalseAlarmvpc3034	critical-1VPC-P_4	55	3	[He will cut the meat]	Yes	1	Yes	493	Hitvpc3034	critical-1VPC-P_2	56	3	[He wil round up the fractions]	Yes	0	No	65	FalseAlarmvpc3034	critical-1VPC-P_16	65	3	[She will buy the store]	Yes	1	Yes	193	Hitvpc3034	critical-1VPC-P_19	68	3	[They will keep the secret]	Yes	0	No	12	FalseAlarmvpc3034	critical-1VPC-P_27	71	3	[We will call the juror]	Yes	0	No	601	FalseAlarmvpc3034	critical-1VPC-P_17	75	3	[They will boil down the soup]	Yes	1	Yes	354	Hitvpc3034	critical-1VPC-P_24	76	3	[They will find the word]	Yes	1	Yes	223	Hitvpc3034	critical-1VPC-P_23	83	3	[They will throw the frisbee]	Yes	0	No	83	FalseAlarmvpc3034	critical-1VPC-P_9	84	3	[She will break off the stick]	Yes	1	Yes	190	Hitvpc3034	critical-1VPC-P_31	88	3	[We will set the timer]	Yes	0	No	524	FalseAlarmvpc3034	critical-1VPC-P_8	94	3	[He will hold the job]	Yes	1	Yes	95	Hitvpc3034	critical-1VPC-P_13	95	3	[She will finish up the game]	Yes	1	Yes	458	Hitvpc3034	critical-1VPC-P_22	98	3	[They will look over the part]	Yes	0	No	115	FalseAlarmvpc3034	critical-1VPC-P_5	105	3	[He will run over the trail]	Yes	1	Yes	1322	Hitvpc3034	critical-1VPC-P_6	110	3	[He will hold up the lizard]	Yes	0	No	99	FalseAlarmvpc3034	critical-1VPC-P_20	117	3	[They will pull the photo]	No	0	Yes	100	Missvpc3034	critical-1VPC-P_30	125	3	[We will mark off the pages]	No	1	No	37	CorrRejectvpc3034	critical-1VPC-P_25	126	3	[We will bring in the dog]	No	0	Yes	241	Missvpc3034	critical-1VPC-P_21	130	3	[They will seal off the bag]	No	0	Yes	1284	Missvpc3034	critical-1VPC-P_1	140	3	[He will bring down the crowd]	Yes	1	Yes	894	Hitvpc3034	critical-1VPC-P_26	157	3	[We will bail out the prisoner]	No	1	No	427	CorrRejectvpc3035	critical-1VPC-P_20	1	6	[They will live down the lie]	No	0	Yes	951	Missvpc3035	critical-1VPC-P_27	2	6	[We will bring the gifts]	Yes	1	Yes	1642	Hitvpc3035	critical-1VPC-P_19	20	6	[They will carry the groceries]	Yes	1	Yes	1031	Hitvpc3035	critical-1VPC-P_18	22	6	[They will catch the students]	No	1	No	984	CorrRejectvpc3035	critical-1VPC-P_13	25	6	[She will close up the cafթ]	Yes	0	No	854	FalseAlarmvpc3035	critical-1VPC-P_17	27	6	[They will shoot down the hawk]	No	1	No	1182	CorrRejectvpc3035	critical-1VPC-P_16	36	6	[She will throw out the trash]	Yes	1	Yes	827	Hitvpc3035	critical-1VPC-P_21	42	6	[They will lead off the dance]	No	1	No	1096	CorrRejectvpc3035	critical-1VPC-P_14	47	6	[She will help the waiter]	No	1	No	1224	CorrRejectvpc3035	critical-1VPC-P_9	51	6	[She will pair off the geese]	No	1	No	1606	CorrRejectvpc3035	critical-1VPC-P_30	54	6	[We will pull the sticker]	No	1	No	1217	CorrRejectvpc3035	critical-1VPC-P_7	60	6	[He will think the thoughts]	Yes	1	Yes	810	Hitvpc3035	critical-1VPC-P_5	63	6	[He will pass over the dessert]	No	1	No	817	CorrRejectvpc3035	critical-1VPC-P_23	74	6	[They will check the essays]	Yes	1	Yes	709	Hitvpc3035	critical-1VPC-P_15	84	6	[She will set the boundaries]	Yes	1	Yes	723	Hitvpc3035	critical-1VPC-P_1	87	6	[He will hold down the line]	No	1	No	939	CorrRejectvpc3035	critical-1VPC-P_28	93	6	[We will dress up the doll]	Yes	1	Yes	656	Hitvpc3035	critical-1VPC-P_8	95	6	[He will strike down the balance]	Yes	1	Yes	1392	Hitvpc3035	critical-1VPC-P_22	97	6	[They will take the position]	No	1	No	992	CorrRejectvpc3035	critical-1VPC-P_6	99	6	[He will run the hills]	No	1	No	841	CorrRejectvpc3035	critical-1VPC-P_3	105	6	[He will cover the research]	Yes	1	Yes	817	Hitvpc3035	critical-1VPC-P_10	111	6	[She will check the books]	Yes	0	No	1028	FalseAlarmvpc3035	critical-1VPC-P_4	112	6	[He will lock up the bicycle]	Yes	1	Yes	1015	Hitvpc3035	critical-1VPC-P_29	115	6	[We will smooth over the frosting]	Yes	0	No	684	FalseAlarmvpc3035	critical-1VPC-P_11	118	6	[She will shut the computer]	Yes	1	Yes	593	Hitvpc3035	critical-1VPC-P_12	119	6	[She will drive away the candidate]	Yes	1	Yes	529	Hitvpc3035	critical-1VPC-P_31	127	6	[We will show the ponies]	Yes	1	Yes	477	Hitvpc3035	critical-1VPC-P_25	136	6	[We will throw in the towel]	No	1	No	1692	CorrRejectvpc3035	critical-1VPC-P_26	143	6	[We will bust the moves]	Yes	0	No	1087	FalseAlarmvpc3035	critical-1VPC-P_32	154	6	[We will tie up the canoe]	Yes	1	Yes	1078	Hitvpc3035	critical-1VPC-P_2	160	6	[He will buy the land]	No	1	No	1028	CorrRejectvpc3036	critical-1VPC-P_10	1	4	[She will check out the books]	Yes	1	Yes	1324	Hitvpc3036	critical-1VPC-P_14	3	4	[She will help out the waiter]	Yes	1	Yes	1712	Hitvpc3036	critical-1VPC-P_9	5	4	[She will pair the geese]	Yes	1	Yes	1462	Hitvpc3036	critical-1VPC-P_8	10	4	[He will strike the balance]	No	1	No	2078	CorrRejectvpc3036	critical-1VPC-P_4	24	4	[He will lock the bicycle]	Yes	0	No	2077	FalseAlarmvpc3036	critical-1VPC-P_7	25	4	[He will think through the thoughts]	No	1	No	2612	CorrRejectvpc3036	critical-1VPC-P_17	27	4	[They will shoot the hawk]	Yes	1	Yes	1482	Hitvpc3036	critical-1VPC-P_31	35	4	[We will show off the ponies]	Yes	0	No	2066	FalseAlarmvpc3036	critical-1VPC-P_29	44	4	[We will smooth the frosting]	Yes	1	Yes	1696	Hitvpc3036	critical-1VPC-P_1	47	4	[He will hold the line]	Yes	1	Yes	1719	Hitvpc3036	critical-1VPC-P_19	56	4	[They will carry up the groceries]	No	1	No	1973	CorrRejectvpc3036	critical-1VPC-P_28	57	4	[We will dress the doll]	Yes	0	No	1208	FalseAlarmvpc3036	critical-1VPC-P_2	58	4	[He will buy up the land]	Yes	1	Yes	1236	Hitvpc3036	critical-1VPC-P_3	71	4	[He will cover up the research]	Yes	0	No	1822	FalseAlarmvpc3036	critical-1VPC-P_18	75	4	[They will catch up the students]	Yes	1	Yes	1300	Hitvpc3036	critical-1VPC-P_27	76	4	[We will bring forth the gifts]	No	1	No	1792	CorrRejectvpc3036	critical-1VPC-P_26	88	4	[We will bust out the moves]	Yes	1	Yes	1590	Hitvpc3036	critical-1VPC-P_15	98	4	[She will set up the boundaries]	No	1	No	1919	CorrRejectvpc3036	critical-1VPC-P_20	105	4	[They will live the lie]	No	1	No	1562	CorrRejectvpc3036	critical-1VPC-P_5	109	4	[He will pass the dessert]	Yes	1	Yes	1149	Hitvpc3036	critical-1VPC-P_23	115	4	[They will check over the essays]	Yes	0	No	1585	FalseAlarmvpc3036	critical-1VPC-P_6	116	4	[He will run up the hills]	Yes	1	Yes	1321	Hitvpc3036	critical-1VPC-P_30	126	4	[We will pull off the sticker]	Yes	1	Yes	2079	Hitvpc3036	critical-1VPC-P_13	131	4	[She will close the cafթ]	Yes	1	Yes	1949	Hitvpc3036	critical-1VPC-P_11	142	4	[She will shut down the computer]	No	1	No	1618	CorrRejectvpc3036	critical-1VPC-P_21	143	4	[They will lead the dance]	Yes	1	Yes	1566	Hitvpc3036	critical-1VPC-P_25	150	4	[We will throw the towel]	Yes	1	Yes	1655	Hitvpc3036	critical-1VPC-P_22	152	4	[They will take over the position]	Yes	1	Yes	1449	Hitvpc3036	critical-1VPC-P_24	154	4	[They will wring the rag]	No	1	No	1817	CorrRejectvpc3036	critical-1VPC-P_12	157	4	[She will drive the candidate]	No	1	No	2353	CorrRejectvpc3037	critical-1VPC-P_11	12	1	[She will close down the slide]	No	0	Yes	1079	Missvpc3037	critical-1VPC-P_18	14	1	[They will mark the lumber]	No	0	Yes	715	Missvpc3037	critical-1VPC-P_19	16	1	[They will keep up the secret]	Yes	1	Yes	979	Hitvpc3037	critical-1VPC-P_23	21	1	[They will throw over the frisbee]	Yes	1	Yes	674	Hitvpc3037	critical-1VPC-P_3	24	1	[He will eat up the spaghetti]	Yes	1	Yes	1177	Hitvpc3037	critical-1VPC-P_27	26	1	[We will call forth the juror]	No	0	Yes	1127	Missvpc3037	critical-1VPC-P_10	28	1	[She will drive the trucks]	Yes	1	Yes	1071	Hitvpc3037	critical-1VPC-P_22	37	1	[They will look the part]	Yes	1	Yes	742	Hitvpc3037	critical-1VPC-P_31	38	1	[We will set off the timer]	No	0	Yes	601	Missvpc3037	critical-1VPC-P_21	46	1	[They will seal the bag]	No	1	No	490	CorrRejectvpc3037	critical-1VPC-P_29	50	1	[We will make the model]	No	1	No	418	CorrRejectvpc3037	critical-1VPC-P_4	51	1	[He will cut up the meat]	Yes	0	No	183	FalseAlarmvpc3037	critical-1VPC-P_25	63	1	[We will bring the dog]	No	1	No	634	CorrRejectvpc3037	critical-1VPC-P_28	65	1	[We will charge up the phone]	No	1	No	373	CorrRejectvpc3037	critical-1VPC-P_32	67	1	[We will buy up the supplies]	No	1	No	383	CorrRejectvpc3037	critical-1VPC-P_1	74	1	[He will bring the crowd]	Yes	0	No	1188	FalseAlarmvpc3037	critical-1VPC-P_9	76	1	[She will break the stick]	No	1	No	254	CorrRejectvpc3037	critical-1VPC-P_12	80	1	[She will give away the prizes]	Yes	0	No	350	FalseAlarmvpc3037	critical-1VPC-P_17	87	1	[They will boil the soup]	No	1	No	1113	CorrRejectvpc3037	critical-1VPC-P_15	90	1	[She will patch up the tire]	Yes	1	Yes	214	Hitvpc3037	critical-1VPC-P_6	97	1	[He will hold the lizard]	Yes	1	Yes	310	Hitvpc3037	critical-1VPC-P_13	99	1	[She will finish the game]	No	1	No	342	CorrRejectvpc3037	critical-1VPC-P_8	102	1	[He will hold down the job]	No	1	No	1314	CorrRejectvpc3037	critical-1VPC-P_5	113	1	[He will run the trail]	Yes	0	No	167	FalseAlarmvpc3037	critical-1VPC-P_16	116	1	[She will buy out the store]	No	1	No	499	CorrRejectvpc3037	critical-1VPC-P_26	123	1	[We will bail the prisoner]	No	0	Yes	1414	Missvpc3037	critical-1VPC-P_7	124	1	[He will see through the rumors]	Yes	1	Yes	875	Hitvpc3037	critical-1VPC-P_2	136	1	[He wil round the fractions]	Yes	1	Yes	973	Hitvpc3037	critical-1VPC-P_14	137	1	[She will clear the drawer]	Yes	1	Yes	496	Hitvpc3037	critical-1VPC-P_30	152	1	[We will mark the pages]	Yes	1	Yes	37	Hitvpc3037	critical-1VPC-P_20	160	1	[They will pull down the photo]	Yes	0	No	1029	FalseAlarmvpc3038	critical-1VPC-P_30	5	1	[We will mark the pages]	Yes	1	Yes	948	Hitvpc3038	critical-1VPC-P_5	9	1	[He will run the trail]	No	1	No	1095	CorrRejectvpc3038	critical-1VPC-P_21	10	1	[They will seal the bag]	No	1	No	1353	CorrRejectvpc3038	critical-1VPC-P_13	15	1	[She will finish the game]	Yes	0	No	1363	FalseAlarmvpc3038	critical-1VPC-P_27	18	1	[We will call forth the juror]	No	0	Yes	1567	Missvpc3038	critical-1VPC-P_20	25	1	[They will pull down the photo]	Yes	0	No	1184	FalseAlarmvpc3038	critical-1VPC-P_9	28	1	[She will break the stick]	No	1	No	1194	CorrRejectvpc3038	critical-1VPC-P_2	34	1	[He wil round the fractions]	Yes	1	Yes	1543	Hitvpc3038	critical-1VPC-P_12	38	1	[She will give away the prizes]	No	1	No	1151	CorrRejectvpc3038	critical-1VPC-P_15	53	1	[She will patch up the tire]	Yes	1	Yes	956	Hitvpc3038	critical-1VPC-P_16	54	1	[She will buy out the store]	No	1	No	1222	CorrRejectvpc3038	critical-1VPC-P_18	70	1	[They will mark the lumber]	Yes	1	Yes	1131	Hitvpc3038	critical-1VPC-P_28	72	1	[We will charge up the phone]	No	1	No	1813	CorrRejectvpc3038	critical-1VPC-P_4	79	1	[He will cut up the meat]	No	1	No	1181	CorrRejectvpc3038	critical-1VPC-P_10	80	1	[She will drive the trucks]	Yes	1	Yes	1248	Hitvpc3038	critical-1VPC-P_11	88	1	[She will close down the slide]	No	0	Yes	1666	Missvpc3038	critical-1VPC-P_25	93	1	[We will bring the dog]	Yes	0	No	1050	FalseAlarmvpc3038	critical-1VPC-P_3	96	1	[He will eat up the spaghetti]	No	0	Yes	1048	Missvpc3038	critical-1VPC-P_29	105	1	[We will make the model]	No	1	No	980	CorrRejectvpc3038	critical-1VPC-P_26	109	1	[We will bail the prisoner]	Yes	1	Yes	950	Hitvpc3038	critical-1VPC-P_23	123	1	[They will throw over the frisbee]	Yes	1	Yes	946	Hitvpc3038	critical-1VPC-P_32	125	1	[We will buy up the supplies]	No	1	No	1216	CorrRejectvpc3038	critical-1VPC-P_7	132	1	[He will see through the rumors]	Yes	1	Yes	1284	Hitvpc3038	critical-1VPC-P_1	139	1	[He will bring the crowd]	No	1	No	1017	CorrRejectvpc3038	critical-1VPC-P_19	140	1	[They will keep up the secret]	Yes	1	Yes	899	Hitvpc3038	critical-1VPC-P_31	142	1	[We will set off the timer]	Yes	1	Yes	1229	Hitvpc3038	critical-1VPC-P_22	150	1	[They will look the part]	Yes	1	Yes	797	Hitvpc3038	critical-1VPC-P_14	151	1	[She will clear the drawer]	Yes	1	Yes	856	Hitvpc3038	critical-1VPC-P_8	152	1	[He will hold down the job]	No	1	No	1426	CorrRejectvpc3038	critical-1VPC-P_24	154	1	[They will find out the word]	No	1	No	954	CorrRejectvpc3038	critical-1VPC-P_6	156	1	[He will hold the lizard]	Yes	1	Yes	1164	Hitvpc3038	critical-1VPC-P_17	157	1	[They will boil the soup]	No	1	No	1006	CorrRejectvpc3039	critical-1VPC-P_20	2	1	[They will pull down the photo]	No	1	No	1907	CorrRejectvpc3039	critical-1VPC-P_7	3	1	[He will see through the rumors]	Yes	1	Yes	1309	Hitvpc3039	critical-1VPC-P_16	9	1	[She will buy out the store]	No	1	No	1253	CorrRejectvpc3039	critical-1VPC-P_26	14	1	[We will bail the prisoner]	Yes	1	Yes	773	Hitvpc3039	critical-1VPC-P_12	24	1	[She will give away the prizes]	No	1	No	920	CorrRejectvpc3039	critical-1VPC-P_13	27	1	[She will finish the game]	No	1	No	980	CorrRejectvpc3039	critical-1VPC-P_2	29	1	[He wil round the fractions]	Yes	1	Yes	1182	Hitvpc3039	critical-1VPC-P_14	41	1	[She will clear the drawer]	Yes	1	Yes	939	Hitvpc3039	critical-1VPC-P_27	64	1	[We will call forth the juror]	Yes	1	Yes	774	Hitvpc3039	critical-1VPC-P_18	65	1	[They will mark the lumber]	Yes	1	Yes	1053	Hitvpc3039	critical-1VPC-P_1	74	1	[He will bring the crowd]	No	1	No	1022	CorrRejectvpc3039	critical-1VPC-P_31	80	1	[We will set off the timer]	Yes	1	Yes	795	Hitvpc3039	critical-1VPC-P_6	85	1	[He will hold the lizard]	Yes	1	Yes	1123	Hitvpc3039	critical-1VPC-P_8	86	1	[He will hold down the job]	No	1	No	734	CorrRejectvpc3039	critical-1VPC-P_28	88	1	[We will charge up the phone]	No	1	No	911	CorrRejectvpc3039	critical-1VPC-P_21	91	1	[They will seal the bag]	No	1	No	845	CorrRejectvpc3039	critical-1VPC-P_9	93	1	[She will break the stick]	No	1	No	709	CorrRejectvpc3039	critical-1VPC-P_11	96	1	[She will close down the slide]	Yes	1	Yes	1186	Hitvpc3039	critical-1VPC-P_10	97	1	[She will drive the trucks]	Yes	1	Yes	1304	Hitvpc3039	critical-1VPC-P_23	103	1	[They will throw over the frisbee]	Yes	1	Yes	609	Hitvpc3039	critical-1VPC-P_29	104	1	[We will make the model]	No	1	No	806	CorrRejectvpc3039	critical-1VPC-P_3	105	1	[He will eat up the spaghetti]	Yes	1	Yes	957	Hitvpc3039	critical-1VPC-P_17	118	1	[They will boil the soup]	No	1	No	985	CorrRejectvpc3039	critical-1VPC-P_32	128	1	[We will buy up the supplies]	No	1	No	1112	CorrRejectvpc3039	critical-1VPC-P_30	129	1	[We will mark the pages]	Yes	1	Yes	730	Hitvpc3039	critical-1VPC-P_15	136	1	[She will patch up the tire]	Yes	1	Yes	664	Hitvpc3039	critical-1VPC-P_24	137	1	[They will find out the word]	No	1	No	1279	CorrRejectvpc3039	critical-1VPC-P_25	138	1	[We will bring the dog]	No	1	No	1107	CorrRejectvpc3039	critical-1VPC-P_5	142	1	[He will run the trail]	No	1	No	917	CorrRejectvpc3039	critical-1VPC-P_22	143	1	[They will look the part]	Yes	1	Yes	781	Hitvpc3039	critical-1VPC-P_4	146	1	[He will cut up the meat]	No	1	No	861	CorrRejectvpc3039	critical-1VPC-P_19	150	1	[They will keep up the secret]	Yes	1	Yes	633	Hitvpc304	critical-1VPC-P_32	1	4	[We will tie the canoe]	Yes	0	No	1198	FalseAlarmvpc304	critical-1VPC-P_22	5	4	[They will take over the position]	Yes	1	Yes	1320	Hitvpc304	critical-1VPC-P_9	9	4	[She will pair the geese]	Yes	1	Yes	1061	Hitvpc304	critical-1VPC-P_28	17	4	[We will dress the doll]	Yes	0	No	771	FalseAlarmvpc304	critical-1VPC-P_2	20	4	[He will buy up the land]	Yes	1	Yes	872	Hitvpc304	critical-1VPC-P_30	32	4	[We will pull off the sticker]	Yes	1	Yes	943	Hitvpc304	critical-1VPC-P_19	36	4	[They will carry up the groceries]	Yes	0	No	748	FalseAlarmvpc304	critical-1VPC-P_13	42	4	[She will close the cafթ]	Yes	1	Yes	820	Hitvpc304	critical-1VPC-P_18	46	4	[They will catch up the students]	Yes	1	Yes	834	Hitvpc304	critical-1VPC-P_14	54	4	[She will help out the waiter]	Yes	1	Yes	744	Hitvpc304	critical-1VPC-P_29	55	4	[We will smooth the frosting]	Yes	1	Yes	741	Hitvpc304	critical-1VPC-P_10	57	4	[She will check out the books]	Yes	1	Yes	811	Hitvpc304	critical-1VPC-P_8	64	4	[He will strike the balance]	No	1	No	1279	CorrRejectvpc304	critical-1VPC-P_3	68	4	[He will cover up the research]	No	1	No	1260	CorrRejectvpc304	critical-1VPC-P_5	72	4	[He will pass the dessert]	Yes	1	Yes	1008	Hitvpc304	critical-1VPC-P_20	75	4	[They will live the lie]	No	1	No	1321	CorrRejectvpc304	critical-1VPC-P_27	77	4	[We will bring forth the gifts]	No	1	No	1035	CorrRejectvpc304	critical-1VPC-P_16	79	4	[She will throw the trash]	No	1	No	1292	CorrRejectvpc304	critical-1VPC-P_1	86	4	[He will hold the line]	Yes	1	Yes	570	Hitvpc304	critical-1VPC-P_17	97	4	[They will shoot the hawk]	Yes	1	Yes	692	Hitvpc304	critical-1VPC-P_11	101	4	[She will shut down the computer]	Yes	0	No	1128	FalseAlarmvpc304	critical-1VPC-P_26	102	4	[We will bust out the moves]	Yes	1	Yes	832	Hitvpc304	critical-1VPC-P_31	112	4	[We will show off the ponies]	No	1	No	1017	CorrRejectvpc304	critical-1VPC-P_15	122	4	[She will set up the boundaries]	Yes	0	No	911	FalseAlarmvpc304	critical-1VPC-P_12	125	4	[She will drive the candidate]	No	1	No	1071	CorrRejectvpc304	critical-1VPC-P_24	130	4	[They will wring the rag]	Yes	0	No	895	FalseAlarmvpc304	critical-1VPC-P_6	133	4	[He will run up the hills]	Yes	1	Yes	814	Hitvpc304	critical-1VPC-P_21	134	4	[They will lead the dance]	Yes	1	Yes	748	Hitvpc304	critical-1VPC-P_4	139	4	[He will lock the bicycle]	No	1	No	855	CorrRejectvpc304	critical-1VPC-P_23	140	4	[They will check over the essays]	No	1	No	928	CorrRejectvpc304	critical-1VPC-P_7	145	4	[He will think through the thoughts]	No	1	No	1013	CorrRejectvpc304	critical-1VPC-P_25	154	4	[We will throw the towel]	No	0	Yes	1340	Missvpc3040	critical-1VPC-P_9	2	1	[She will break the stick]	Yes	0	No	847	FalseAlarmvpc3040	critical-1VPC-P_2	3	1	[He wil round the fractions]	Yes	1	Yes	1272	Hitvpc3040	critical-1VPC-P_32	13	1	[We will buy up the supplies]	No	1	No	1984	CorrRejectvpc3040	critical-1VPC-P_14	18	1	[She will clear the drawer]	Yes	1	Yes	1533	Hitvpc3040	critical-1VPC-P_26	30	1	[We will bail the prisoner]	Yes	1	Yes	1418	Hitvpc3040	critical-1VPC-P_29	31	1	[We will make the model]	No	1	No	1269	CorrRejectvpc3040	critical-1VPC-P_19	32	1	[They will keep up the secret]	Yes	1	Yes	1040	Hitvpc3040	critical-1VPC-P_17	33	1	[They will boil the soup]	No	1	No	1296	CorrRejectvpc3040	critical-1VPC-P_25	50	1	[We will bring the dog]	No	1	No	1270	CorrRejectvpc3040	critical-1VPC-P_11	58	1	[She will close down the slide]	Yes	1	Yes	1097	Hitvpc3040	critical-1VPC-P_22	68	1	[They will look the part]	Yes	1	Yes	1704	Hitvpc3040	critical-1VPC-P_24	69	1	[They will find out the word]	No	1	No	902	CorrRejectvpc3040	critical-1VPC-P_10	70	1	[She will drive the trucks]	Yes	1	Yes	1384	Hitvpc3040	critical-1VPC-P_31	78	1	[We will set off the timer]	Yes	1	Yes	924	Hitvpc3040	critical-1VPC-P_16	84	1	[She will buy out the store]	No	1	No	1048	CorrRejectvpc3040	critical-1VPC-P_3	85	1	[He will eat up the spaghetti]	Yes	1	Yes	823	Hitvpc3040	critical-1VPC-P_8	86	1	[He will hold down the job]	No	1	No	1336	CorrRejectvpc3040	critical-1VPC-P_5	92	1	[He will run the trail]	No	1	No	927	CorrRejectvpc3040	critical-1VPC-P_7	95	1	[He will see through the rumors]	Yes	1	Yes	1168	Hitvpc3040	critical-1VPC-P_28	98	1	[We will charge up the phone]	No	1	No	954	CorrRejectvpc3040	critical-1VPC-P_18	101	1	[They will mark the lumber]	Yes	1	Yes	844	Hitvpc3040	critical-1VPC-P_12	103	1	[She will give away the prizes]	No	1	No	915	CorrRejectvpc3040	critical-1VPC-P_4	106	1	[He will cut up the meat]	No	1	No	1106	CorrRejectvpc3040	critical-1VPC-P_21	110	1	[They will seal the bag]	No	1	No	751	CorrRejectvpc3040	critical-1VPC-P_27	120	1	[We will call forth the juror]	Yes	1	Yes	913	Hitvpc3040	critical-1VPC-P_15	138	1	[She will patch up the tire]	Yes	1	Yes	950	Hitvpc3040	critical-1VPC-P_13	139	1	[She will finish the game]	No	1	No	868	CorrRejectvpc3040	critical-1VPC-P_1	144	1	[He will bring the crowd]	No	1	No	721	CorrRejectvpc3040	critical-1VPC-P_30	146	1	[We will mark the pages]	Yes	1	Yes	759	Hitvpc3040	critical-1VPC-P_23	151	1	[They will throw over the frisbee]	Yes	1	Yes	1370	Hitvpc3040	critical-1VPC-P_20	157	1	[They will pull down the photo]	No	1	No	897	CorrRejectvpc3040	critical-1VPC-P_6	159	1	[He will hold the lizard]	Yes	1	Yes	621	Hitvpc3041	critical-1VPC-P_10	2	7	[She will drive out the trucks]	Yes	0	No	710	FalseAlarmvpc3041	critical-1VPC-P_32	6	7	[We will buy the supplies]	Yes	1	Yes	818	Hitvpc3041	critical-1VPC-P_24	7	7	[They will find the word]	Yes	1	Yes	1004	Hitvpc3041	critical-1VPC-P_29	9	7	[We will make over the model]	Yes	1	Yes	801	Hitvpc3041	critical-1VPC-P_8	14	7	[He will hold the job]	Yes	1	Yes	789	Hitvpc3041	critical-1VPC-P_12	19	7	[She will give the prizes]	Yes	1	Yes	1588	Hitvpc3041	critical-1VPC-P_11	20	7	[She will close the slide]	Yes	0	No	870	FalseAlarmvpc3041	critical-1VPC-P_9	23	7	[She will break off the stick]	Yes	1	Yes	912	Hitvpc3041	critical-1VPC-P_14	25	7	[She will clear out the drawer]	Yes	0	No	1255	FalseAlarmvpc3041	critical-1VPC-P_25	37	7	[We will bring in the dog]	Yes	1	Yes	613	Hitvpc3041	critical-1VPC-P_23	39	7	[They will throw the frisbee]	Yes	0	No	603	FalseAlarmvpc3041	critical-1VPC-P_7	43	7	[He will see the rumors]	Yes	0	No	1508	FalseAlarmvpc3041	critical-1VPC-P_26	48	7	[We will bail out the prisoner]	Yes	0	No	1728	FalseAlarmvpc3041	critical-1VPC-P_19	50	7	[They will keep the secret]	Yes	0	No	2313	FalseAlarmvpc3041	critical-1VPC-P_2	52	7	[He wil round up the fractions]	Yes	0	No	734	FalseAlarmvpc3041	critical-1VPC-P_6	55	7	[He will hold up the lizard]	No	1	No	1711	CorrRejectvpc3041	critical-1VPC-P_30	57	7	[We will mark off the pages]	No	1	No	1059	CorrRejectvpc3041	critical-1VPC-P_17	61	7	[They will boil down the soup]	Yes	1	Yes	899	Hitvpc3041	critical-1VPC-P_4	67	7	[He will cut the meat]	Yes	1	Yes	700	Hitvpc3041	critical-1VPC-P_22	75	7	[They will look over the part]	No	1	No	897	CorrRejectvpc3041	critical-1VPC-P_21	79	7	[They will seal off the bag]	Yes	1	Yes	1951	Hitvpc3041	critical-1VPC-P_1	88	7	[He will bring down the crowd]	Yes	1	Yes	608	Hitvpc3041	critical-1VPC-P_27	107	7	[We will call the juror]	No	1	No	958	CorrRejectvpc3041	critical-1VPC-P_13	108	7	[She will finish up the game]	Yes	1	Yes	877	Hitvpc3041	critical-1VPC-P_16	116	7	[She will buy the store]	Yes	1	Yes	1241	Hitvpc3041	critical-1VPC-P_28	120	7	[We will charge the phone]	Yes	1	Yes	680	Hitvpc3041	critical-1VPC-P_15	125	7	[She will patch the tire]	Yes	0	No	954	FalseAlarmvpc3041	critical-1VPC-P_3	128	7	[He will eat the spaghetti]	Yes	0	No	744	FalseAlarmvpc3041	critical-1VPC-P_18	134	7	[They will mark up the lumber]	Yes	0	No	679	FalseAlarmvpc3041	critical-1VPC-P_31	145	7	[We will set the timer]	Yes	0	No	1041	FalseAlarmvpc3042	critical-1VPC-P_28	1	7	[We will charge the phone]	No	0	Yes	846	Missvpc3042	critical-1VPC-P_8	2	7	[He will hold the job]	Yes	1	Yes	710	Hitvpc3042	critical-1VPC-P_24	12	7	[They will find the word]	Yes	1	Yes	710	Hitvpc3042	critical-1VPC-P_2	18	7	[He wil round up the fractions]	Yes	0	No	742	FalseAlarmvpc3042	critical-1VPC-P_10	25	7	[She will drive out the trucks]	No	1	No	946	CorrRejectvpc3042	critical-1VPC-P_13	27	7	[She will finish up the game]	Yes	1	Yes	575	Hitvpc3042	critical-1VPC-P_5	34	7	[He will run over the trail]	Yes	1	Yes	861	Hitvpc3042	critical-1VPC-P_1	42	7	[He will bring down the crowd]	Yes	1	Yes	1327	Hitvpc3042	critical-1VPC-P_7	48	7	[He will see the rumors]	No	1	No	1252	CorrRejectvpc3042	critical-1VPC-P_14	54	7	[She will clear out the drawer]	No	1	No	1262	CorrRejectvpc3042	critical-1VPC-P_25	57	7	[We will bring in the dog]	Yes	1	Yes	1487	Hitvpc3042	critical-1VPC-P_15	58	7	[She will patch the tire]	Yes	0	No	803	FalseAlarmvpc3042	critical-1VPC-P_17	60	7	[They will boil down the soup]	Yes	1	Yes	1128	Hitvpc3042	critical-1VPC-P_26	69	7	[We will bail out the prisoner]	No	1	No	713	CorrRejectvpc3042	critical-1VPC-P_9	70	7	[She will break off the stick]	Yes	1	Yes	707	Hitvpc3042	critical-1VPC-P_16	75	7	[She will buy the store]	Yes	1	Yes	2000	Hitvpc3042	critical-1VPC-P_18	76	7	[They will mark up the lumber]	No	1	No	954	CorrRejectvpc3042	critical-1VPC-P_4	77	7	[He will cut the meat]	Yes	1	Yes	953	Hitvpc3042	critical-1VPC-P_22	78	7	[They will look over the part]	No	1	No	1110	CorrRejectvpc3042	critical-1VPC-P_20	93	7	[They will pull the photo]	Yes	1	Yes	880	Hitvpc3042	critical-1VPC-P_6	94	7	[He will hold up the lizard]	No	1	No	1044	CorrRejectvpc3042	critical-1VPC-P_30	95	7	[We will mark off the pages]	Yes	0	No	1182	FalseAlarmvpc3042	critical-1VPC-P_21	109	7	[They will seal off the bag]	Yes	1	Yes	768	Hitvpc3042	critical-1VPC-P_12	117	7	[She will give the prizes]	Yes	1	Yes	815	Hitvpc3042	critical-1VPC-P_27	133	7	[We will call the juror]	Yes	0	No	790	FalseAlarmvpc3042	critical-1VPC-P_23	140	7	[They will throw the frisbee]	No	1	No	1976	CorrRejectvpc3042	critical-1VPC-P_19	141	7	[They will keep the secret]	No	1	No	800	CorrRejectvpc3042	critical-1VPC-P_32	150	7	[We will buy the supplies]	Yes	1	Yes	913	Hitvpc3042	critical-1VPC-P_11	151	7	[She will close the slide]	Yes	0	No	658	FalseAlarmvpc3042	critical-1VPC-P_3	153	7	[He will eat the spaghetti]	No	1	No	927	CorrRejectvpc3042	critical-1VPC-P_29	155	7	[We will make over the model]	Yes	1	Yes	988	Hitvpc3043	critical-1VPC-P_2	2	8	[He will buy up the land]	Yes	1	Yes	1069	Hitvpc3043	critical-1VPC-P_8	11	8	[He will strike the balance]	No	1	No	1056	CorrRejectvpc3043	critical-1VPC-P_23	14	8	[They will check over the essays]	Yes	0	No	964	FalseAlarmvpc3043	critical-1VPC-P_31	18	8	[We will show off the ponies]	Yes	0	No	807	FalseAlarmvpc3043	critical-1VPC-P_14	19	8	[She will help out the waiter]	Yes	1	Yes	1289	Hitvpc3043	critical-1VPC-P_10	28	8	[She will check out the books]	Yes	1	Yes	696	Hitvpc3043	critical-1VPC-P_5	29	8	[He will pass the dessert]	Yes	1	Yes	1014	Hitvpc3043	critical-1VPC-P_4	32	8	[He will lock the bicycle]	Yes	0	No	1440	FalseAlarmvpc3043	critical-1VPC-P_30	35	8	[We will pull off the sticker]	Yes	1	Yes	1327	Hitvpc3043	critical-1VPC-P_21	49	8	[They will lead the dance]	Yes	1	Yes	735	Hitvpc3043	critical-1VPC-P_3	50	8	[He will cover up the research]	No	1	No	695	CorrRejectvpc3043	critical-1VPC-P_1	52	8	[He will hold the line]	Yes	1	Yes	991	Hitvpc3043	critical-1VPC-P_18	55	8	[They will catch up the students]	Yes	1	Yes	647	Hitvpc3043	critical-1VPC-P_7	58	8	[He will think through the thoughts]	No	1	No	1007	CorrRejectvpc3043	critical-1VPC-P_12	65	8	[She will drive the candidate]	No	1	No	728	CorrRejectvpc3043	critical-1VPC-P_22	77	8	[They will take over the position]	Yes	1	Yes	805	Hitvpc3043	critical-1VPC-P_25	78	8	[We will throw the towel]	Yes	1	Yes	831	Hitvpc3043	critical-1VPC-P_29	89	8	[We will smooth the frosting]	Yes	1	Yes	720	Hitvpc3043	critical-1VPC-P_28	91	8	[We will dress the doll]	Yes	0	No	719	FalseAlarmvpc3043	critical-1VPC-P_6	94	8	[He will run up the hills]	No	0	Yes	601	Missvpc3043	critical-1VPC-P_17	98	8	[They will shoot the hawk]	Yes	1	Yes	857	Hitvpc3043	critical-1VPC-P_11	105	8	[She will shut down the computer]	Yes	0	No	833	FalseAlarmvpc3043	critical-1VPC-P_20	114	8	[They will live the lie]	No	1	No	744	CorrRejectvpc3043	critical-1VPC-P_16	118	8	[She will throw the trash]	No	1	No	896	CorrRejectvpc3043	critical-1VPC-P_32	119	8	[We will tie the canoe]	No	1	No	920	CorrRejectvpc3043	critical-1VPC-P_26	123	8	[We will bust out the moves]	Yes	1	Yes	589	Hitvpc3043	critical-1VPC-P_13	127	8	[She will close the cafթ]	Yes	1	Yes	722	Hitvpc3043	critical-1VPC-P_24	132	8	[They will wring the rag]	Yes	0	No	976	FalseAlarmvpc3043	critical-1VPC-P_15	140	8	[She will set up the boundaries]	Yes	0	No	648	FalseAlarmvpc3043	critical-1VPC-P_9	150	8	[She will pair the geese]	Yes	1	Yes	800	Hitvpc3043	critical-1VPC-P_27	152	8	[We will bring forth the gifts]	Yes	0	No	1143	FalseAlarmvpc3043	critical-1VPC-P_19	154	8	[They will carry up the groceries]	Yes	0	No	832	FalseAlarmvpc3044	critical-1VPC-P_7	2	8	[He will think through the thoughts]	Yes	0	No	1577	FalseAlarmvpc3044	critical-1VPC-P_20	4	8	[They will live the lie]	No	1	No	1719	CorrRejectvpc3044	critical-1VPC-P_11	17	8	[She will shut down the computer]	Yes	0	No	1527	FalseAlarmvpc3044	critical-1VPC-P_23	19	8	[They will check over the essays]	No	1	No	1305	CorrRejectvpc3044	critical-1VPC-P_21	20	8	[They will lead the dance]	Yes	1	Yes	1623	Hitvpc3044	critical-1VPC-P_30	21	8	[We will pull off the sticker]	Yes	1	Yes	1123	Hitvpc3044	critical-1VPC-P_14	24	8	[She will help out the waiter]	Yes	1	Yes	1105	Hitvpc3044	critical-1VPC-P_22	34	8	[They will take over the position]	Yes	1	Yes	1599	Hitvpc3044	critical-1VPC-P_26	46	8	[We will bust out the moves]	Yes	1	Yes	993	Hitvpc3044	critical-1VPC-P_24	47	8	[They will wring the rag]	No	1	No	1657	CorrRejectvpc3044	critical-1VPC-P_13	53	8	[She will close the cafթ]	Yes	1	Yes	705	Hitvpc3044	critical-1VPC-P_4	54	8	[He will lock the bicycle]	Yes	0	No	999	FalseAlarmvpc3044	critical-1VPC-P_27	57	8	[We will bring forth the gifts]	No	1	No	1449	CorrRejectvpc3044	critical-1VPC-P_19	67	8	[They will carry up the groceries]	No	1	No	1425	CorrRejectvpc3044	critical-1VPC-P_18	73	8	[They will catch up the students]	Yes	1	Yes	1243	Hitvpc3044	critical-1VPC-P_29	78	8	[We will smooth the frosting]	Yes	1	Yes	907	Hitvpc3044	critical-1VPC-P_31	81	8	[We will show off the ponies]	No	1	No	1071	CorrRejectvpc3044	critical-1VPC-P_3	86	8	[He will cover up the research]	No	1	No	1406	CorrRejectvpc3044	critical-1VPC-P_25	88	8	[We will throw the towel]	Yes	1	Yes	1378	Hitvpc3044	critical-1VPC-P_9	90	8	[She will pair the geese]	Yes	1	Yes	1043	Hitvpc3044	critical-1VPC-P_12	91	8	[She will drive the candidate]	No	1	No	978	CorrRejectvpc3044	critical-1VPC-P_8	93	8	[He will strike the balance]	Yes	0	No	1956	FalseAlarmvpc3044	critical-1VPC-P_10	94	8	[She will check out the books]	Yes	1	Yes	1299	Hitvpc3044	critical-1VPC-P_28	109	8	[We will dress the doll]	No	1	No	1002	CorrRejectvpc3044	critical-1VPC-P_15	128	8	[She will set up the boundaries]	No	1	No	1395	CorrRejectvpc3044	critical-1VPC-P_16	132	8	[She will throw the trash]	Yes	0	No	1258	FalseAlarm